"X","trialNum","rt","subject","condition","InducerL","InducerR","ConcurrentL","ConcurrentR","choice"
0,1,5820,"07v6VRVWrL","Brightness-Amp-Affect-12","Noise-Pulse-L","Noise-Pulse-H","Brightness-Squares-L","Brightness-Squares-H",1
1,2,3725,"07v6VRVWrL","Brightness-Amp-Affect-12","Brightness-Triangles-L","Brightness-Triangles-H","Speed-SP1-H","Speed-SP1-L",1
2,3,2765,"07v6VRVWrL","Brightness-Amp-Affect-12","Affect-SC-H","Affect-SC-L","Brightness-Circles-L","Brightness-Circles-H",1
3,4,4058,"07v6VRVWrL","Brightness-Amp-Affect-12","Brightness-Triangles-H","Brightness-Triangles-L","Amp-Pulse-L","Amp-Pulse-H",1
4,5,5037,"07v6VRVWrL","Brightness-Amp-Affect-12","Size-Squares-H","Size-Squares-L","Affect-HS-L","Affect-HS-H",1
5,6,2997,"07v6VRVWrL","Brightness-Amp-Affect-12","Brightness-Circles-L","Brightness-Circles-H","Affect-EB-L","Affect-EB-H",0
6,7,3684,"07v6VRVWrL","Brightness-Amp-Affect-12","Amp-Piano-L","Amp-Piano-H","Color-RB-H","Color-RB-L",1
7,8,13598,"07v6VRVWrL","Brightness-Amp-Affect-12","Amp-Piano-L","Amp-Piano-H","Noise-Pulse-H","Noise-Pulse-L",1
8,9,6763,"07v6VRVWrL","Brightness-Amp-Affect-12","Pitch-Hum-H","Pitch-Hum-L","Amp-Tone-L","Amp-Tone-H",1
9,10,5308,"07v6VRVWrL","Brightness-Amp-Affect-12","Affect-PD-L","Affect-PD-H","Amp-Pulse-H","Amp-Pulse-L",1
10,11,3971,"07v6VRVWrL","Brightness-Amp-Affect-12","Amp-Piano-L","Amp-Piano-H","Size-Squares-L","Size-Squares-H",0
11,12,3725,"07v6VRVWrL","Brightness-Amp-Affect-12","Size-Squares-H","Size-Squares-L","Brightness-Squares-L","Brightness-Squares-H",1
12,13,13371,"07v6VRVWrL","Brightness-Amp-Affect-12","Noise-Pulse-L","Noise-Pulse-H","Amp-Tone-H","Amp-Tone-L",0
13,14,3165,"07v6VRVWrL","Brightness-Amp-Affect-12","Speed-SP1-L","Speed-SP1-H","Affect-EB-L","Affect-EB-H",0
14,15,2965,"07v6VRVWrL","Brightness-Amp-Affect-12","Color-RB-L","Color-RB-H","Brightness-Squares-H","Brightness-Squares-L",0
15,16,5011,"07v6VRVWrL","Brightness-Amp-Affect-12","Color-RB-L","Color-RB-H","Amp-Tone-H","Amp-Tone-L",1
16,17,4995,"07v6VRVWrL","Brightness-Amp-Affect-12","Amp-Hum-H","Amp-Hum-L","Size-Squares-H","Size-Squares-L",0
17,18,2189,"07v6VRVWrL","Brightness-Amp-Affect-12","Affect-PD-L","Affect-PD-H","Brightness-Circles-L","Brightness-Circles-H",0
18,19,4588,"07v6VRVWrL","Brightness-Amp-Affect-12","Shape-BK3-L","Shape-BK3-H","Amp-Pulse-H","Amp-Pulse-L",1
19,20,4130,"07v6VRVWrL","Brightness-Amp-Affect-12","Amp-Hum-L","Amp-Hum-H","Brightness-Circles-L","Brightness-Circles-H",0
20,21,3101,"07v6VRVWrL","Brightness-Amp-Affect-12","Affect-PD-L","Affect-PD-H","Shape-BK3-L","Shape-BK3-H",1
21,22,3517,"07v6VRVWrL","Brightness-Amp-Affect-12","Affect-SC-H","Affect-SC-L","Shape-BK3-L","Shape-BK3-H",0
22,23,3444,"07v6VRVWrL","Brightness-Amp-Affect-12","Affect-PD-H","Affect-PD-L","Amp-Tone-H","Amp-Tone-L",0
23,24,3221,"07v6VRVWrL","Brightness-Amp-Affect-12","Shape-BK3-H","Shape-BK3-L","Brightness-Circles-L","Brightness-Circles-H",1
24,25,2613,"07v6VRVWrL","Brightness-Amp-Affect-12","Affect-PD-H","Affect-PD-L","Brightness-Squares-H","Brightness-Squares-L",0
25,26,8578,"07v6VRVWrL","Brightness-Amp-Affect-12","Amp-Piano-H","Amp-Piano-L","Pitch-Hum-L","Pitch-Hum-H",1
26,27,4675,"07v6VRVWrL","Brightness-Amp-Affect-12","Amp-Piano-H","Amp-Piano-L","Shape-BK3-L","Shape-BK3-H",0
27,28,3820,"07v6VRVWrL","Brightness-Amp-Affect-12","Amp-Pulse-H","Amp-Pulse-L","Brightness-Squares-H","Brightness-Squares-L",0
28,29,2468,"07v6VRVWrL","Brightness-Amp-Affect-12","Speed-SP1-H","Speed-SP1-L","Brightness-Circles-H","Brightness-Circles-L",0
29,30,3893,"07v6VRVWrL","Brightness-Amp-Affect-12","Noise-Pulse-L","Noise-Pulse-H","Affect-HS-L","Affect-HS-H",1
30,31,13306,"07v6VRVWrL","Brightness-Amp-Affect-12","Shape-BK3-L","Shape-BK3-H","Amp-Tone-L","Amp-Tone-H",0
31,32,6116,"07v6VRVWrL","Brightness-Amp-Affect-12","Brightness-Triangles-L","Brightness-Triangles-H","Noise-Pulse-L","Noise-Pulse-H",1
32,33,8012,"07v6VRVWrL","Brightness-Amp-Affect-12","Pitch-Hum-H","Pitch-Hum-L","Brightness-Circles-H","Brightness-Circles-L",1
33,34,2693,"07v6VRVWrL","Brightness-Amp-Affect-12","Speed-SP1-H","Speed-SP1-L","Affect-HS-H","Affect-HS-L",0
34,35,2941,"07v6VRVWrL","Brightness-Amp-Affect-12","Size-Squares-L","Size-Squares-H","Brightness-Circles-H","Brightness-Circles-L",1
35,36,2525,"07v6VRVWrL","Brightness-Amp-Affect-12","Brightness-Diamonds-L","Brightness-Diamonds-H","Shape-BK3-H","Shape-BK3-L",0
36,37,4292,"07v6VRVWrL","Brightness-Amp-Affect-12","Affect-PD-H","Affect-PD-L","Pitch-Hum-H","Pitch-Hum-L",1
37,38,2542,"07v6VRVWrL","Brightness-Amp-Affect-12","Speed-SP1-H","Speed-SP1-L","Brightness-Squares-L","Brightness-Squares-H",1
38,39,5721,"07v6VRVWrL","Brightness-Amp-Affect-12","Amp-Hum-H","Amp-Hum-L","Noise-Pulse-H","Noise-Pulse-L",1
39,40,2406,"07v6VRVWrL","Brightness-Amp-Affect-12","Color-RB-H","Color-RB-L","Affect-HS-L","Affect-HS-H",0
40,41,2877,"07v6VRVWrL","Brightness-Amp-Affect-12","Affect-PD-H","Affect-PD-L","Size-Squares-H","Size-Squares-L",0
41,42,4347,"07v6VRVWrL","Brightness-Amp-Affect-12","Affect-SC-L","Affect-SC-H","Pitch-Hum-H","Pitch-Hum-L",1
42,43,4099,"07v6VRVWrL","Brightness-Amp-Affect-12","Brightness-Circles-H","Brightness-Circles-L","Amp-Pulse-H","Amp-Pulse-L",0
43,44,4579,"07v6VRVWrL","Brightness-Amp-Affect-12","Pitch-Hum-H","Pitch-Hum-L","Affect-HS-L","Affect-HS-H",1
44,45,4044,"07v6VRVWrL","Brightness-Amp-Affect-12","Amp-Piano-L","Amp-Piano-H","Affect-PD-H","Affect-PD-L",1
45,46,2421,"07v6VRVWrL","Brightness-Amp-Affect-12","Affect-SC-H","Affect-SC-L","Speed-SP1-H","Speed-SP1-L",0
46,47,4379,"07v6VRVWrL","Brightness-Amp-Affect-12","Amp-Hum-L","Amp-Hum-H","Shape-BK3-L","Shape-BK3-H",1
47,48,5028,"07v6VRVWrL","Brightness-Amp-Affect-12","Pitch-Hum-H","Pitch-Hum-L","Affect-EB-H","Affect-EB-L",0
48,49,4924,"07v6VRVWrL","Brightness-Amp-Affect-12","Amp-Pulse-H","Amp-Pulse-L","Affect-EB-L","Affect-EB-H",1
49,50,6116,"07v6VRVWrL","Brightness-Amp-Affect-12","Amp-Piano-H","Amp-Piano-L","Speed-SP1-H","Speed-SP1-L",0
50,51,3611,"07v6VRVWrL","Brightness-Amp-Affect-12","Brightness-Circles-H","Brightness-Circles-L","Amp-Tone-L","Amp-Tone-H",1
51,52,2868,"07v6VRVWrL","Brightness-Amp-Affect-12","Affect-PD-L","Affect-PD-H","Brightness-Circles-L","Brightness-Circles-H",0
52,53,41404,"07v6VRVWrL","Brightness-Amp-Affect-12","Color-RB-L","Color-RB-H","Affect-EB-H","Affect-EB-L",1
53,54,5777,"07v6VRVWrL","Brightness-Amp-Affect-12","Noise-Pulse-H","Noise-Pulse-L","Amp-Pulse-L","Amp-Pulse-H",1
54,55,4484,"07v6VRVWrL","Brightness-Amp-Affect-12","Amp-Pulse-H","Amp-Pulse-L","Brightness-Circles-L","Brightness-Circles-H",1
55,56,5171,"07v6VRVWrL","Brightness-Amp-Affect-12","Brightness-Diamonds-H","Brightness-Diamonds-L","Pitch-Hum-H","Pitch-Hum-L",0
56,57,4596,"07v6VRVWrL","Brightness-Amp-Affect-12","Amp-Piano-H","Amp-Piano-L","Brightness-Circles-L","Brightness-Circles-H",1
57,58,12021,"07v6VRVWrL","Brightness-Amp-Affect-12","Noise-Pulse-L","Noise-Pulse-H","Brightness-Circles-H","Brightness-Circles-L",0
58,59,4860,"07v6VRVWrL","Brightness-Amp-Affect-12","Brightness-Triangles-H","Brightness-Triangles-L","Shape-BK3-L","Shape-BK3-H",0
59,60,2989,"07v6VRVWrL","Brightness-Amp-Affect-12","Brightness-Triangles-H","Brightness-Triangles-L","Color-RB-L","Color-RB-H",1
60,61,3620,"07v6VRVWrL","Brightness-Amp-Affect-12","Brightness-Triangles-L","Brightness-Triangles-H","Pitch-Hum-H","Pitch-Hum-L",1
61,62,5593,"07v6VRVWrL","Brightness-Amp-Affect-12","Pitch-Hum-H","Pitch-Hum-L","Amp-Pulse-H","Amp-Pulse-L",0
62,63,6467,"07v6VRVWrL","Brightness-Amp-Affect-12","Affect-SC-L","Affect-SC-H","Noise-Pulse-H","Noise-Pulse-L",1
63,64,3589,"07v6VRVWrL","Brightness-Amp-Affect-12","Affect-SC-L","Affect-SC-H","Color-RB-L","Color-RB-H",0
64,65,4069,"07v6VRVWrL","Brightness-Amp-Affect-12","Amp-Pulse-L","Amp-Pulse-H","Affect-HS-H","Affect-HS-L",1
65,66,4252,"07v6VRVWrL","Brightness-Amp-Affect-12","Amp-Hum-H","Amp-Hum-L","Color-RB-H","Color-RB-L",0
66,67,3884,"07v6VRVWrL","Brightness-Amp-Affect-12","Color-RB-L","Color-RB-H","Brightness-Circles-L","Brightness-Circles-H",1
67,68,2509,"07v6VRVWrL","Brightness-Amp-Affect-12","Affect-PD-L","Affect-PD-H","Speed-SP1-H","Speed-SP1-L",1
68,69,3756,"07v6VRVWrL","Brightness-Amp-Affect-12","Pitch-Hum-L","Pitch-Hum-H","Brightness-Squares-L","Brightness-Squares-H",0
69,70,7651,"07v6VRVWrL","Brightness-Amp-Affect-12","Affect-PD-H","Affect-PD-L","Noise-Pulse-L","Noise-Pulse-H",0
70,71,3907,"07v6VRVWrL","Brightness-Amp-Affect-12","Noise-Pulse-H","Noise-Pulse-L","Affect-EB-H","Affect-EB-L",1
71,72,4475,"07v6VRVWrL","Brightness-Amp-Affect-12","Brightness-Diamonds-H","Brightness-Diamonds-L","Noise-Pulse-L","Noise-Pulse-H",0
72,73,2597,"07v6VRVWrL","Brightness-Amp-Affect-12","Brightness-Diamonds-H","Brightness-Diamonds-L","Speed-SP1-H","Speed-SP1-L",0
73,74,3157,"07v6VRVWrL","Brightness-Amp-Affect-12","Size-Squares-H","Size-Squares-L","Affect-EB-H","Affect-EB-L",1
74,75,3795,"07v6VRVWrL","Brightness-Amp-Affect-12","Affect-SC-H","Affect-SC-L","Amp-Pulse-H","Amp-Pulse-L",0
75,76,4460,"07v6VRVWrL","Brightness-Amp-Affect-12","Amp-Hum-H","Amp-Hum-L","Affect-PD-L","Affect-PD-H",1
76,77,8602,"07v6VRVWrL","Brightness-Amp-Affect-12","Amp-Hum-L","Amp-Hum-H","Pitch-Hum-H","Pitch-Hum-L",1
77,78,3780,"07v6VRVWrL","Brightness-Amp-Affect-12","Speed-SP1-L","Speed-SP1-H","Amp-Pulse-H","Amp-Pulse-L",1
78,79,3004,"07v6VRVWrL","Brightness-Amp-Affect-12","Brightness-Triangles-H","Brightness-Triangles-L","Affect-PD-L","Affect-PD-H",1
79,80,3547,"07v6VRVWrL","Brightness-Amp-Affect-12","Color-RB-L","Color-RB-H","Amp-Pulse-L","Amp-Pulse-H",1
80,81,3788,"07v6VRVWrL","Brightness-Amp-Affect-12","Brightness-Triangles-L","Brightness-Triangles-H","Size-Squares-H","Size-Squares-L",1
81,82,2605,"07v6VRVWrL","Brightness-Amp-Affect-12","Shape-BK3-H","Shape-BK3-L","Affect-EB-L","Affect-EB-H",1
82,83,2389,"07v6VRVWrL","Brightness-Amp-Affect-12","Shape-BK3-L","Shape-BK3-H","Brightness-Squares-H","Brightness-Squares-L",1
83,84,3514,"07v6VRVWrL","Brightness-Amp-Affect-12","Size-Squares-L","Size-Squares-H","Amp-Pulse-L","Amp-Pulse-H",0
84,85,4141,"07v6VRVWrL","Brightness-Amp-Affect-12","Brightness-Diamonds-L","Brightness-Diamonds-H","Color-RB-L","Color-RB-H",1
85,86,6299,"07v6VRVWrL","Brightness-Amp-Affect-12","Amp-Hum-L","Amp-Hum-H","Speed-SP1-H","Speed-SP1-L",1
86,87,4020,"07v6VRVWrL","Brightness-Amp-Affect-12","Affect-PD-L","Affect-PD-H","Amp-Pulse-L","Amp-Pulse-H",0
87,88,3511,"07v6VRVWrL","Brightness-Amp-Affect-12","Speed-SP1-L","Speed-SP1-H","Amp-Tone-L","Amp-Tone-H",1
88,89,3542,"07v6VRVWrL","Brightness-Amp-Affect-12","Shape-BK3-H","Shape-BK3-L","Affect-HS-H","Affect-HS-L",1
89,90,2661,"07v6VRVWrL","Brightness-Amp-Affect-12","Affect-PD-H","Affect-PD-L","Color-RB-L","Color-RB-H",0
90,91,2661,"07v6VRVWrL","Brightness-Amp-Affect-12","Brightness-Diamonds-H","Brightness-Diamonds-L","Size-Squares-H","Size-Squares-L",0
91,92,3395,"07v6VRVWrL","Brightness-Amp-Affect-12","Size-Squares-L","Size-Squares-H","Amp-Tone-H","Amp-Tone-L",1
92,93,3381,"07v6VRVWrL","Brightness-Amp-Affect-12","Affect-SC-L","Affect-SC-H","Size-Squares-L","Size-Squares-H",0
93,94,2606,"07v6VRVWrL","Brightness-Amp-Affect-12","Brightness-Circles-L","Brightness-Circles-H","Affect-HS-H","Affect-HS-L",1
94,95,3194,"07v6VRVWrL","Brightness-Amp-Affect-12","Brightness-Diamonds-L","Brightness-Diamonds-H","Amp-Pulse-L","Amp-Pulse-H",0
95,96,2054,"07v6VRVWrL","Brightness-Amp-Affect-12","Brightness-Diamonds-L","Brightness-Diamonds-H","Affect-PD-L","Affect-PD-H",0
0,1,4554,"0hyFge02V3","Brightness-Amp-Affect-11","Amp-Piano-H","Amp-Piano-L","Brightness-Circles-L","Brightness-Circles-H",1
1,2,4302,"0hyFge02V3","Brightness-Amp-Affect-11","Brightness-Triangles-L","Brightness-Triangles-H","Amp-Tone-H","Amp-Tone-L",1
2,3,6436,"0hyFge02V3","Brightness-Amp-Affect-11","Amp-Pulse-H","Amp-Pulse-L","Pitch-Hum-L","Pitch-Hum-H",0
3,4,5363,"0hyFge02V3","Brightness-Amp-Affect-11","Brightness-Triangles-H","Brightness-Triangles-L","Pitch-Hum-H","Pitch-Hum-L",1
4,5,5270,"0hyFge02V3","Brightness-Amp-Affect-11","Color-RY-L","Color-RY-H","Amp-Tone-L","Amp-Tone-H",1
5,6,4500,"0hyFge02V3","Brightness-Amp-Affect-11","Shape-BK3-H","Shape-BK3-L","Amp-Hum-H","Amp-Hum-L",0
6,7,4726,"0hyFge02V3","Brightness-Amp-Affect-11","Pitch-Hum-H","Pitch-Hum-L","Affect-SC-H","Affect-SC-L",1
7,8,5770,"0hyFge02V3","Brightness-Amp-Affect-11","Pitch-Hum-L","Pitch-Hum-H","Brightness-Circles-H","Brightness-Circles-L",0
8,9,7443,"0hyFge02V3","Brightness-Amp-Affect-11","Noise-Piano-L","Noise-Piano-H","Amp-Tone-L","Amp-Tone-H",1
9,10,5194,"0hyFge02V3","Brightness-Amp-Affect-11","Speed-SP2-H","Speed-SP2-L","Amp-Tone-H","Amp-Tone-L",0
10,11,8237,"0hyFge02V3","Brightness-Amp-Affect-11","Brightness-Squares-H","Brightness-Squares-L","Noise-Piano-H","Noise-Piano-L",1
11,12,6975,"0hyFge02V3","Brightness-Amp-Affect-11","Amp-Piano-L","Amp-Piano-H","Noise-Piano-L","Noise-Piano-H",1
12,13,4971,"0hyFge02V3","Brightness-Amp-Affect-11","Speed-SP2-H","Speed-SP2-L","Brightness-Circles-H","Brightness-Circles-L",0
13,14,5375,"0hyFge02V3","Brightness-Amp-Affect-11","Brightness-Squares-H","Brightness-Squares-L","Size-Squares-L","Size-Squares-H",1
14,15,4502,"0hyFge02V3","Brightness-Amp-Affect-11","Brightness-Triangles-L","Brightness-Triangles-H","Amp-Hum-H","Amp-Hum-L",1
15,16,3201,"0hyFge02V3","Brightness-Amp-Affect-11","Affect-HS-L","Affect-HS-H","Brightness-Triangles-L","Brightness-Triangles-H",0
16,17,4880,"0hyFge02V3","Brightness-Amp-Affect-11","Brightness-Squares-L","Brightness-Squares-H","Amp-Piano-H","Amp-Piano-L",1
17,18,5768,"0hyFge02V3","Brightness-Amp-Affect-11","Size-Squares-L","Size-Squares-H","Amp-Tone-L","Amp-Tone-H",0
18,19,4608,"0hyFge02V3","Brightness-Amp-Affect-11","Amp-Piano-L","Amp-Piano-H","Color-RY-H","Color-RY-L",0
19,20,2765,"0hyFge02V3","Brightness-Amp-Affect-11","Color-RY-H","Color-RY-L","Brightness-Diamonds-L","Brightness-Diamonds-H",0
20,21,6882,"0hyFge02V3","Brightness-Amp-Affect-11","Speed-SP2-L","Speed-SP2-H","Affect-SC-L","Affect-SC-H",0
21,22,7343,"0hyFge02V3","Brightness-Amp-Affect-11","Pitch-Hum-L","Pitch-Hum-H","Amp-Hum-H","Amp-Hum-L",0
22,23,4278,"0hyFge02V3","Brightness-Amp-Affect-11","Brightness-Triangles-H","Brightness-Triangles-L","Noise-Piano-L","Noise-Piano-H",0
23,24,3834,"0hyFge02V3","Brightness-Amp-Affect-11","Amp-Piano-L","Amp-Piano-H","Size-Squares-H","Size-Squares-L",1
24,25,5222,"0hyFge02V3","Brightness-Amp-Affect-11","Pitch-Hum-L","Pitch-Hum-H","Affect-PD-H","Affect-PD-L",0
25,26,4711,"0hyFge02V3","Brightness-Amp-Affect-11","Amp-Pulse-L","Amp-Pulse-H","Size-Squares-H","Size-Squares-L",1
26,27,5157,"0hyFge02V3","Brightness-Amp-Affect-11","Affect-HS-L","Affect-HS-H","Speed-SP2-H","Speed-SP2-L",1
27,28,4020,"0hyFge02V3","Brightness-Amp-Affect-11","Color-RY-H","Color-RY-L","Amp-Hum-L","Amp-Hum-H",0
28,29,3675,"0hyFge02V3","Brightness-Amp-Affect-11","Shape-BK3-H","Shape-BK3-L","Affect-PD-L","Affect-PD-H",0
29,30,2892,"0hyFge02V3","Brightness-Amp-Affect-11","Affect-PD-L","Affect-PD-H","Brightness-Diamonds-L","Brightness-Diamonds-H",0
30,31,6371,"0hyFge02V3","Brightness-Amp-Affect-11","Shape-BK3-L","Shape-BK3-H","Amp-Tone-H","Amp-Tone-L",1
31,32,4095,"0hyFge02V3","Brightness-Amp-Affect-11","Amp-Piano-H","Amp-Piano-L","Brightness-Diamonds-L","Brightness-Diamonds-H",1
32,33,4560,"0hyFge02V3","Brightness-Amp-Affect-11","Amp-Pulse-H","Amp-Pulse-L","Shape-BK3-L","Shape-BK3-H",1
33,34,4909,"0hyFge02V3","Brightness-Amp-Affect-11","Speed-SP2-H","Speed-SP2-L","Brightness-Diamonds-H","Brightness-Diamonds-L",0
34,35,3858,"0hyFge02V3","Brightness-Amp-Affect-11","Noise-Piano-L","Noise-Piano-H","Brightness-Circles-H","Brightness-Circles-L",0
35,36,3823,"0hyFge02V3","Brightness-Amp-Affect-11","Pitch-Hum-L","Pitch-Hum-H","Brightness-Diamonds-H","Brightness-Diamonds-L",0
36,37,2781,"0hyFge02V3","Brightness-Amp-Affect-11","Brightness-Triangles-L","Brightness-Triangles-H","Affect-PD-H","Affect-PD-L",1
37,38,3018,"0hyFge02V3","Brightness-Amp-Affect-11","Affect-EB-H","Affect-EB-L","Size-Squares-H","Size-Squares-L",0
38,39,3456,"0hyFge02V3","Brightness-Amp-Affect-11","Amp-Piano-H","Amp-Piano-L","Affect-PD-L","Affect-PD-H",0
39,40,5056,"0hyFge02V3","Brightness-Amp-Affect-11","Amp-Pulse-L","Amp-Pulse-H","Affect-PD-H","Affect-PD-L",0
40,41,3869,"0hyFge02V3","Brightness-Amp-Affect-11","Brightness-Squares-L","Brightness-Squares-H","Shape-BK3-H","Shape-BK3-L",0
41,42,2533,"0hyFge02V3","Brightness-Amp-Affect-11","Affect-HS-H","Affect-HS-L","Size-Squares-L","Size-Squares-H",1
42,43,7749,"0hyFge02V3","Brightness-Amp-Affect-11","Amp-Pulse-L","Amp-Pulse-H","Noise-Piano-L","Noise-Piano-H",1
43,44,4039,"0hyFge02V3","Brightness-Amp-Affect-11","Brightness-Squares-L","Brightness-Squares-H","Color-RY-L","Color-RY-H",1
44,45,4486,"0hyFge02V3","Brightness-Amp-Affect-11","Affect-EB-L","Affect-EB-H","Speed-SP2-H","Speed-SP2-L",1
45,46,3489,"0hyFge02V3","Brightness-Amp-Affect-11","Speed-SP2-L","Speed-SP2-H","Affect-PD-L","Affect-PD-H",0
46,47,3992,"0hyFge02V3","Brightness-Amp-Affect-11","Color-RY-L","Color-RY-H","Brightness-Circles-L","Brightness-Circles-H",1
47,48,4048,"0hyFge02V3","Brightness-Amp-Affect-11","Brightness-Triangles-H","Brightness-Triangles-L","Affect-SC-L","Affect-SC-H",1
48,49,4865,"0hyFge02V3","Brightness-Amp-Affect-11","Speed-SP2-L","Speed-SP2-H","Amp-Hum-H","Amp-Hum-L",1
49,50,9096,"0hyFge02V3","Brightness-Amp-Affect-11","Amp-Piano-H","Amp-Piano-L","Affect-SC-L","Affect-SC-H",1
50,51,5181,"0hyFge02V3","Brightness-Amp-Affect-11","Size-Squares-L","Size-Squares-H","Brightness-Circles-H","Brightness-Circles-L",1
51,52,3508,"0hyFge02V3","Brightness-Amp-Affect-11","Brightness-Squares-L","Brightness-Squares-H","Affect-PD-L","Affect-PD-H",1
52,53,3801,"0hyFge02V3","Brightness-Amp-Affect-11","Brightness-Triangles-L","Brightness-Triangles-H","Shape-BK3-L","Shape-BK3-H",1
53,54,8294,"0hyFge02V3","Brightness-Amp-Affect-11","Brightness-Triangles-L","Brightness-Triangles-H","Affect-PD-L","Affect-PD-H",0
54,55,8676,"0hyFge02V3","Brightness-Amp-Affect-11","Noise-Piano-L","Noise-Piano-H","Affect-SC-H","Affect-SC-L",1
55,56,4500,"0hyFge02V3","Brightness-Amp-Affect-11","Amp-Pulse-L","Amp-Pulse-H","Color-RY-H","Color-RY-L",0
56,57,4300,"0hyFge02V3","Brightness-Amp-Affect-11","Affect-EB-L","Affect-EB-H","Amp-Piano-H","Amp-Piano-L",1
57,58,3614,"0hyFge02V3","Brightness-Amp-Affect-11","Amp-Piano-L","Amp-Piano-H","Affect-PD-H","Affect-PD-L",1
58,59,5321,"0hyFge02V3","Brightness-Amp-Affect-11","Affect-PD-L","Affect-PD-H","Amp-Hum-L","Amp-Hum-H",0
59,60,4265,"0hyFge02V3","Brightness-Amp-Affect-11","Affect-HS-L","Affect-HS-H","Amp-Piano-H","Amp-Piano-L",1
60,61,2170,"0hyFge02V3","Brightness-Amp-Affect-11","Brightness-Triangles-H","Brightness-Triangles-L","Size-Squares-H","Size-Squares-L",0
61,62,5411,"0hyFge02V3","Brightness-Amp-Affect-11","Color-RY-H","Color-RY-L","Affect-SC-H","Affect-SC-L",1
62,63,5163,"0hyFge02V3","Brightness-Amp-Affect-11","Noise-Piano-L","Noise-Piano-H","Brightness-Diamonds-H","Brightness-Diamonds-L",0
63,64,3453,"0hyFge02V3","Brightness-Amp-Affect-11","Color-RY-H","Color-RY-L","Affect-PD-H","Affect-PD-L",1
64,65,2423,"0hyFge02V3","Brightness-Amp-Affect-11","Brightness-Triangles-L","Brightness-Triangles-H","Color-RY-H","Color-RY-L",1
65,66,2515,"0hyFge02V3","Brightness-Amp-Affect-11","Size-Squares-H","Size-Squares-L","Affect-PD-H","Affect-PD-L",0
66,67,3835,"0hyFge02V3","Brightness-Amp-Affect-11","Affect-PD-H","Affect-PD-L","Amp-Tone-L","Amp-Tone-H",1
67,68,4982,"0hyFge02V3","Brightness-Amp-Affect-11","Affect-EB-H","Affect-EB-L","Noise-Piano-H","Noise-Piano-L",1
68,69,3255,"0hyFge02V3","Brightness-Amp-Affect-11","Affect-HS-H","Affect-HS-L","Color-RY-H","Color-RY-L",1
69,70,3674,"0hyFge02V3","Brightness-Amp-Affect-11","Affect-HS-H","Affect-HS-L","Noise-Piano-L","Noise-Piano-H",0
70,71,3602,"0hyFge02V3","Brightness-Amp-Affect-11","Brightness-Triangles-H","Brightness-Triangles-L","Speed-SP2-H","Speed-SP2-L",0
71,72,6661,"0hyFge02V3","Brightness-Amp-Affect-11","Brightness-Squares-H","Brightness-Squares-L","Pitch-Hum-L","Pitch-Hum-H",0
72,73,2843,"0hyFge02V3","Brightness-Amp-Affect-11","Brightness-Squares-H","Brightness-Squares-L","Speed-SP2-H","Speed-SP2-L",0
73,74,2496,"0hyFge02V3","Brightness-Amp-Affect-11","Affect-HS-L","Affect-HS-H","Shape-BK3-L","Shape-BK3-H",1
74,75,3206,"0hyFge02V3","Brightness-Amp-Affect-11","Shape-BK3-H","Shape-BK3-L","Brightness-Diamonds-L","Brightness-Diamonds-H",0
75,76,4181,"0hyFge02V3","Brightness-Amp-Affect-11","Amp-Piano-H","Amp-Piano-L","Brightness-Triangles-L","Brightness-Triangles-H",1
76,77,4079,"0hyFge02V3","Brightness-Amp-Affect-11","Size-Squares-H","Size-Squares-L","Amp-Hum-L","Amp-Hum-H",1
77,78,4088,"0hyFge02V3","Brightness-Amp-Affect-11","Shape-BK3-L","Shape-BK3-H","Affect-SC-L","Affect-SC-H",0
78,79,4266,"0hyFge02V3","Brightness-Amp-Affect-11","Amp-Piano-H","Amp-Piano-L","Speed-SP2-L","Speed-SP2-H",1
79,80,5732,"0hyFge02V3","Brightness-Amp-Affect-11","Pitch-Hum-H","Pitch-Hum-L","Amp-Tone-H","Amp-Tone-L",1
80,81,2581,"0hyFge02V3","Brightness-Amp-Affect-11","Size-Squares-L","Size-Squares-H","Brightness-Diamonds-H","Brightness-Diamonds-L",1
81,82,4503,"0hyFge02V3","Brightness-Amp-Affect-11","Noise-Piano-L","Noise-Piano-H","Affect-PD-H","Affect-PD-L",0
82,83,3912,"0hyFge02V3","Brightness-Amp-Affect-11","Brightness-Triangles-L","Brightness-Triangles-H","Amp-Piano-L","Amp-Piano-H",0
83,84,2596,"0hyFge02V3","Brightness-Amp-Affect-11","Affect-PD-H","Affect-PD-L","Brightness-Circles-L","Brightness-Circles-H",1
84,85,4059,"0hyFge02V3","Brightness-Amp-Affect-11","Amp-Pulse-H","Amp-Pulse-L","Speed-SP2-L","Speed-SP2-H",1
85,86,2300,"0hyFge02V3","Brightness-Amp-Affect-11","Affect-EB-L","Affect-EB-H","Brightness-Triangles-L","Brightness-Triangles-H",0
86,87,7073,"0hyFge02V3","Brightness-Amp-Affect-11","Noise-Piano-H","Noise-Piano-L","Amp-Hum-L","Amp-Hum-H",0
87,88,4255,"0hyFge02V3","Brightness-Amp-Affect-11","Amp-Piano-H","Amp-Piano-L","Shape-BK3-L","Shape-BK3-H",1
88,89,3554,"0hyFge02V3","Brightness-Amp-Affect-11","Amp-Pulse-H","Amp-Pulse-L","Brightness-Triangles-L","Brightness-Triangles-H",1
89,90,3332,"0hyFge02V3","Brightness-Amp-Affect-11","Affect-EB-H","Affect-EB-L","Color-RY-L","Color-RY-H",0
90,91,5843,"0hyFge02V3","Brightness-Amp-Affect-11","Amp-Piano-H","Amp-Piano-L","Pitch-Hum-H","Pitch-Hum-L",1
91,92,5094,"0hyFge02V3","Brightness-Amp-Affect-11","Affect-HS-H","Affect-HS-L","Pitch-Hum-L","Pitch-Hum-H",0
92,93,3598,"0hyFge02V3","Brightness-Amp-Affect-11","Size-Squares-H","Size-Squares-L","Affect-SC-H","Affect-SC-L",0
93,94,2357,"0hyFge02V3","Brightness-Amp-Affect-11","Affect-EB-L","Affect-EB-H","Shape-BK3-H","Shape-BK3-L",0
94,95,3124,"0hyFge02V3","Brightness-Amp-Affect-11","Shape-BK3-H","Shape-BK3-L","Brightness-Circles-L","Brightness-Circles-H",0
95,96,8068,"0hyFge02V3","Brightness-Amp-Affect-11","Affect-EB-H","Affect-EB-L","Pitch-Hum-L","Pitch-Hum-H",0
0,1,5634,"0n9FgftmIS","Amp-Size-Speed-13","Brightness-Circles-L","Brightness-Circles-H","Amp-Piano-H","Amp-Piano-L",1
1,2,8959,"0n9FgftmIS","Amp-Size-Speed-13","Size-Diamonds-L","Size-Diamonds-H","Noise-Tone-H","Noise-Tone-L",1
2,3,6759,"0n9FgftmIS","Amp-Size-Speed-13","Amp-Pulse-H","Amp-Pulse-L","Speed-SP4-L","Speed-SP4-H",1
3,4,6630,"0n9FgftmIS","Amp-Size-Speed-13","Size-Circles-H","Size-Circles-L","Pitch-Piano-H","Pitch-Piano-L",1
4,5,4762,"0n9FgftmIS","Amp-Size-Speed-13","Size-Diamonds-H","Size-Diamonds-L","Affect-PD-L","Affect-PD-H",1
5,6,7053,"0n9FgftmIS","Amp-Size-Speed-13","Speed-SP4-L","Speed-SP4-H","Noise-Tone-L","Noise-Tone-H",0
6,7,9537,"0n9FgftmIS","Amp-Size-Speed-13","Amp-Piano-L","Amp-Piano-H","Speed-SP3-L","Speed-SP3-H",0
7,8,5197,"0n9FgftmIS","Amp-Size-Speed-13","Speed-SP4-H","Speed-SP4-L","Amp-Piano-L","Amp-Piano-H",1
8,9,5528,"0n9FgftmIS","Amp-Size-Speed-13","Size-Diamonds-H","Size-Diamonds-L","Amp-Piano-H","Amp-Piano-L",0
9,10,6631,"0n9FgftmIS","Amp-Size-Speed-13","Speed-SP2-L","Speed-SP2-H","Shape-BK1-L","Shape-BK1-H",0
10,11,5413,"0n9FgftmIS","Amp-Size-Speed-13","Shape-BK1-L","Shape-BK1-H","Amp-Piano-H","Amp-Piano-L",1
11,12,6079,"0n9FgftmIS","Amp-Size-Speed-13","Size-Circles-L","Size-Circles-H","Amp-Piano-H","Amp-Piano-L",1
12,13,9370,"0n9FgftmIS","Amp-Size-Speed-13","Noise-Tone-L","Noise-Tone-H","Speed-SP1-H","Speed-SP1-L",0
13,14,6105,"0n9FgftmIS","Amp-Size-Speed-13","Amp-Piano-L","Amp-Piano-H","Size-Squares-L","Size-Squares-H",0
14,15,3723,"0n9FgftmIS","Amp-Size-Speed-13","Size-Circles-H","Size-Circles-L","Amp-Piano-L","Amp-Piano-H",1
15,16,7026,"0n9FgftmIS","Amp-Size-Speed-13","Speed-SP4-L","Speed-SP4-H","Size-Squares-H","Size-Squares-L",0
16,17,7617,"0n9FgftmIS","Amp-Size-Speed-13","Size-Diamonds-L","Size-Diamonds-H","Pitch-Piano-L","Pitch-Piano-H",1
17,18,8063,"0n9FgftmIS","Amp-Size-Speed-13","Affect-PD-H","Affect-PD-L","Amp-Piano-L","Amp-Piano-H",1
18,19,5939,"0n9FgftmIS","Amp-Size-Speed-13","Noise-Tone-H","Noise-Tone-L","Size-Squares-H","Size-Squares-L",0
19,20,10676,"0n9FgftmIS","Amp-Size-Speed-13","Shape-BK1-L","Shape-BK1-H","Speed-SP1-L","Speed-SP1-H",0
20,21,6053,"0n9FgftmIS","Amp-Size-Speed-13","Size-Circles-H","Size-Circles-L","Noise-Tone-L","Noise-Tone-H",0
21,22,5220,"0n9FgftmIS","Amp-Size-Speed-13","Amp-Tone-L","Amp-Tone-H","Brightness-Circles-H","Brightness-Circles-L",1
22,23,6297,"0n9FgftmIS","Amp-Size-Speed-13","Shape-BK1-L","Shape-BK1-H","Size-Squares-L","Size-Squares-H",1
23,24,5899,"0n9FgftmIS","Amp-Size-Speed-13","Speed-SP4-H","Speed-SP4-L","Amp-Piano-H","Amp-Piano-L",0
24,25,7781,"0n9FgftmIS","Amp-Size-Speed-13","Pitch-Piano-H","Pitch-Piano-L","Speed-SP1-H","Speed-SP1-L",0
25,26,4097,"0n9FgftmIS","Amp-Size-Speed-13","Size-Diamonds-H","Size-Diamonds-L","Shape-BK1-L","Shape-BK1-H",0
26,27,4413,"0n9FgftmIS","Amp-Size-Speed-13","Speed-SP4-L","Speed-SP4-H","Size-Circles-L","Size-Circles-H",1
27,28,5119,"0n9FgftmIS","Amp-Size-Speed-13","Size-Circles-H","Size-Circles-L","Brightness-Circles-L","Brightness-Circles-H",0
28,29,4991,"0n9FgftmIS","Amp-Size-Speed-13","Color-RB-H","Color-RB-L","Amp-Piano-L","Amp-Piano-H",1
29,30,5772,"0n9FgftmIS","Amp-Size-Speed-13","Size-Circles-L","Size-Circles-H","Affect-PD-H","Affect-PD-L",0
30,31,3853,"0n9FgftmIS","Amp-Size-Speed-13","Shape-BK1-H","Shape-BK1-L","Size-Triangles-L","Size-Triangles-H",0
31,32,5582,"0n9FgftmIS","Amp-Size-Speed-13","Affect-PD-H","Affect-PD-L","Size-Triangles-L","Size-Triangles-H",1
32,33,4823,"0n9FgftmIS","Amp-Size-Speed-13","Shape-BK1-L","Shape-BK1-H","Amp-Hum-H","Amp-Hum-L",1
33,34,4746,"0n9FgftmIS","Amp-Size-Speed-13","Noise-Tone-L","Noise-Tone-H","Size-Triangles-H","Size-Triangles-L",0
34,35,7191,"0n9FgftmIS","Amp-Size-Speed-13","Speed-SP2-H","Speed-SP2-L","Noise-Tone-L","Noise-Tone-H",0
35,36,4888,"0n9FgftmIS","Amp-Size-Speed-13","Amp-Tone-L","Amp-Tone-H","Shape-BK1-L","Shape-BK1-H",0
36,37,10686,"0n9FgftmIS","Amp-Size-Speed-13","Pitch-Piano-H","Pitch-Piano-L","Amp-Hum-H","Amp-Hum-L",0
37,38,5412,"0n9FgftmIS","Amp-Size-Speed-13","Color-RB-L","Color-RB-H","Amp-Hum-L","Amp-Hum-H",0
38,39,12402,"0n9FgftmIS","Amp-Size-Speed-13","Noise-Tone-H","Noise-Tone-L","Amp-Hum-L","Amp-Hum-H",0
39,40,5053,"0n9FgftmIS","Amp-Size-Speed-13","Affect-PD-H","Affect-PD-L","Amp-Hum-L","Amp-Hum-H",0
40,41,3724,"0n9FgftmIS","Amp-Size-Speed-13","Affect-PD-H","Affect-PD-L","Speed-SP3-L","Speed-SP3-H",1
41,42,15026,"0n9FgftmIS","Amp-Size-Speed-13","Amp-Tone-H","Amp-Tone-L","Noise-Tone-L","Noise-Tone-H",0
42,43,11980,"0n9FgftmIS","Amp-Size-Speed-13","Amp-Tone-L","Amp-Tone-H","Pitch-Piano-H","Pitch-Piano-L",1
43,44,4246,"0n9FgftmIS","Amp-Size-Speed-13","Color-RB-H","Color-RB-L","Speed-SP3-H","Speed-SP3-L",0
44,45,3853,"0n9FgftmIS","Amp-Size-Speed-13","Speed-SP4-H","Speed-SP4-L","Brightness-Circles-H","Brightness-Circles-L",0
45,46,3212,"0n9FgftmIS","Amp-Size-Speed-13","Speed-SP4-L","Speed-SP4-H","Color-RB-L","Color-RB-H",0
46,47,3621,"0n9FgftmIS","Amp-Size-Speed-13","Speed-SP4-H","Speed-SP4-L","Shape-BK1-H","Shape-BK1-L",0
47,48,6028,"0n9FgftmIS","Amp-Size-Speed-13","Brightness-Circles-H","Brightness-Circles-L","Speed-SP1-L","Speed-SP1-H",1
48,49,4273,"0n9FgftmIS","Amp-Size-Speed-13","Shape-BK1-L","Shape-BK1-H","Speed-SP3-L","Speed-SP3-H",0
49,50,6296,"0n9FgftmIS","Amp-Size-Speed-13","Amp-Pulse-H","Amp-Pulse-L","Shape-BK1-L","Shape-BK1-H",1
50,51,3749,"0n9FgftmIS","Amp-Size-Speed-13","Speed-SP4-H","Speed-SP4-L","Affect-PD-H","Affect-PD-L",0
51,52,4631,"0n9FgftmIS","Amp-Size-Speed-13","Speed-SP4-L","Speed-SP4-H","Amp-Hum-H","Amp-Hum-L",1
52,53,5963,"0n9FgftmIS","Amp-Size-Speed-13","Pitch-Piano-H","Pitch-Piano-L","Speed-SP3-H","Speed-SP3-L",0
53,54,4181,"0n9FgftmIS","Amp-Size-Speed-13","Size-Circles-L","Size-Circles-H","Speed-SP1-H","Speed-SP1-L",0
54,55,6387,"0n9FgftmIS","Amp-Size-Speed-13","Amp-Piano-H","Amp-Piano-L","Speed-SP1-L","Speed-SP1-H",1
55,56,3694,"0n9FgftmIS","Amp-Size-Speed-13","Affect-PD-H","Affect-PD-L","Size-Squares-L","Size-Squares-H",1
56,57,5389,"0n9FgftmIS","Amp-Size-Speed-13","Speed-SP2-L","Speed-SP2-H","Affect-PD-L","Affect-PD-H",0
57,58,3839,"0n9FgftmIS","Amp-Size-Speed-13","Color-RB-L","Color-RB-H","Size-Squares-L","Size-Squares-H",0
58,59,16089,"0n9FgftmIS","Amp-Size-Speed-13","Amp-Pulse-L","Amp-Pulse-H","Noise-Tone-H","Noise-Tone-L",0
59,60,4619,"0n9FgftmIS","Amp-Size-Speed-13","Size-Diamonds-H","Size-Diamonds-L","Color-RB-H","Color-RB-L",0
60,61,6935,"0n9FgftmIS","Amp-Size-Speed-13","Pitch-Piano-H","Pitch-Piano-L","Amp-Piano-H","Amp-Piano-L",0
61,62,5719,"0n9FgftmIS","Amp-Size-Speed-13","Speed-SP4-L","Speed-SP4-H","Size-Triangles-H","Size-Triangles-L",0
62,63,3671,"0n9FgftmIS","Amp-Size-Speed-13","Color-RB-H","Color-RB-L","Speed-SP1-H","Speed-SP1-L",0
63,64,5196,"0n9FgftmIS","Amp-Size-Speed-13","Amp-Tone-H","Amp-Tone-L","Color-RB-H","Color-RB-L",0
64,65,7075,"0n9FgftmIS","Amp-Size-Speed-13","Pitch-Piano-L","Pitch-Piano-H","Size-Squares-H","Size-Squares-L",0
65,66,5603,"0n9FgftmIS","Amp-Size-Speed-13","Size-Circles-H","Size-Circles-L","Amp-Hum-L","Amp-Hum-H",1
66,67,4057,"0n9FgftmIS","Amp-Size-Speed-13","Size-Circles-H","Size-Circles-L","Speed-SP4-H","Speed-SP4-L",1
67,68,4286,"0n9FgftmIS","Amp-Size-Speed-13","Brightness-Circles-L","Brightness-Circles-H","Speed-SP3-L","Speed-SP3-H",0
68,69,7204,"0n9FgftmIS","Amp-Size-Speed-13","Amp-Tone-H","Amp-Tone-L","Affect-PD-H","Affect-PD-L",0
69,70,4017,"0n9FgftmIS","Amp-Size-Speed-13","Speed-SP2-H","Speed-SP2-L","Size-Circles-L","Size-Circles-H",0
70,71,5594,"0n9FgftmIS","Amp-Size-Speed-13","Amp-Pulse-H","Amp-Pulse-L","Brightness-Circles-H","Brightness-Circles-L",0
71,72,4016,"0n9FgftmIS","Amp-Size-Speed-13","Speed-SP2-L","Speed-SP2-H","Brightness-Circles-L","Brightness-Circles-H",0
72,73,5350,"0n9FgftmIS","Amp-Size-Speed-13","Speed-SP4-L","Speed-SP4-H","Pitch-Piano-L","Pitch-Piano-H",0
73,74,5655,"0n9FgftmIS","Amp-Size-Speed-13","Amp-Pulse-L","Amp-Pulse-H","Size-Circles-L","Size-Circles-H",0
74,75,6193,"0n9FgftmIS","Amp-Size-Speed-13","Size-Circles-L","Size-Circles-H","Shape-BK1-H","Shape-BK1-L",0
75,76,5130,"0n9FgftmIS","Amp-Size-Speed-13","Speed-SP2-H","Speed-SP2-L","Pitch-Piano-H","Pitch-Piano-L",0
76,77,6228,"0n9FgftmIS","Amp-Size-Speed-13","Amp-Pulse-L","Amp-Pulse-H","Affect-PD-H","Affect-PD-L",1
77,78,6041,"0n9FgftmIS","Amp-Size-Speed-13","Pitch-Piano-H","Pitch-Piano-L","Size-Triangles-H","Size-Triangles-L",1
78,79,8419,"0n9FgftmIS","Amp-Size-Speed-13","Amp-Pulse-L","Amp-Pulse-H","Color-RB-L","Color-RB-H",0
79,80,4120,"0n9FgftmIS","Amp-Size-Speed-13","Brightness-Circles-L","Brightness-Circles-H","Size-Squares-H","Size-Squares-L",1
80,81,2725,"0n9FgftmIS","Amp-Size-Speed-13","Brightness-Circles-L","Brightness-Circles-H","Size-Triangles-H","Size-Triangles-L",1
81,82,4132,"0n9FgftmIS","Amp-Size-Speed-13","Color-RB-L","Color-RB-H","Size-Triangles-L","Size-Triangles-H",0
82,83,3185,"0n9FgftmIS","Amp-Size-Speed-13","Size-Circles-L","Size-Circles-H","Color-RB-L","Color-RB-H",0
83,84,5297,"0n9FgftmIS","Amp-Size-Speed-13","Noise-Tone-H","Noise-Tone-L","Speed-SP3-H","Speed-SP3-L",1
84,85,2736,"0n9FgftmIS","Amp-Size-Speed-13","Size-Diamonds-L","Size-Diamonds-H","Brightness-Circles-L","Brightness-Circles-H",0
85,86,2841,"0n9FgftmIS","Amp-Size-Speed-13","Affect-PD-L","Affect-PD-H","Speed-SP1-L","Speed-SP1-H",0
86,87,4655,"0n9FgftmIS","Amp-Size-Speed-13","Amp-Tone-L","Amp-Tone-H","Speed-SP4-H","Speed-SP4-L",1
87,88,4887,"0n9FgftmIS","Amp-Size-Speed-13","Brightness-Circles-L","Brightness-Circles-H","Amp-Hum-H","Amp-Hum-L",1
88,89,7473,"0n9FgftmIS","Amp-Size-Speed-13","Speed-SP2-L","Speed-SP2-H","Amp-Piano-H","Amp-Piano-L",1
89,90,5335,"0n9FgftmIS","Amp-Size-Speed-13","Amp-Tone-H","Amp-Tone-L","Size-Circles-L","Size-Circles-H",1
90,91,4364,"0n9FgftmIS","Amp-Size-Speed-13","Size-Circles-L","Size-Circles-H","Speed-SP3-H","Speed-SP3-L",0
91,92,4972,"0n9FgftmIS","Amp-Size-Speed-13","Amp-Piano-H","Amp-Piano-L","Size-Triangles-L","Size-Triangles-H",1
92,93,7869,"0n9FgftmIS","Amp-Size-Speed-13","Amp-Pulse-H","Amp-Pulse-L","Pitch-Piano-H","Pitch-Piano-L",0
93,94,2892,"0n9FgftmIS","Amp-Size-Speed-13","Size-Diamonds-L","Size-Diamonds-H","Speed-SP4-H","Speed-SP4-L",0
94,95,7306,"0n9FgftmIS","Amp-Size-Speed-13","Speed-SP2-H","Speed-SP2-L","Color-RB-H","Color-RB-L",0
95,96,6449,"0n9FgftmIS","Amp-Size-Speed-13","Noise-Tone-H","Noise-Tone-L","Amp-Piano-L","Amp-Piano-H",0
0,1,12364,"0QKSdtytYo","Brightness-Amp-Affect-25","Brightness-Diamonds-H","Brightness-Diamonds-L","Amp-Piano-L","Amp-Piano-H",1
1,2,10861,"0QKSdtytYo","Brightness-Amp-Affect-25","Noise-Hum-L","Noise-Hum-H","Affect-SC-L","Affect-SC-H",0
2,3,4446,"0QKSdtytYo","Brightness-Amp-Affect-25","Brightness-Diamonds-H","Brightness-Diamonds-L","Affect-SC-H","Affect-SC-L",0
3,4,5214,"0QKSdtytYo","Brightness-Amp-Affect-25","Affect-HS-H","Affect-HS-L","Shape-BK2-H","Shape-BK2-L",1
4,5,4622,"0QKSdtytYo","Brightness-Amp-Affect-25","Brightness-Triangles-H","Brightness-Triangles-L","Speed-SP4-H","Speed-SP4-L",0
5,6,5189,"0QKSdtytYo","Brightness-Amp-Affect-25","Size-Diamonds-L","Size-Diamonds-H","Amp-Hum-L","Amp-Hum-H",0
6,7,6333,"0QKSdtytYo","Brightness-Amp-Affect-25","Affect-SC-H","Affect-SC-L","Brightness-Squares-H","Brightness-Squares-L",0
7,8,6198,"0QKSdtytYo","Brightness-Amp-Affect-25","Brightness-Diamonds-L","Brightness-Diamonds-H","Pitch-Tone-H","Pitch-Tone-L",1
8,9,7213,"0QKSdtytYo","Brightness-Amp-Affect-25","Amp-Piano-H","Amp-Piano-L","Affect-SC-H","Affect-SC-L",0
9,10,5630,"0QKSdtytYo","Brightness-Amp-Affect-25","Size-Diamonds-H","Size-Diamonds-L","Brightness-Squares-L","Brightness-Squares-H",1
10,11,4429,"0QKSdtytYo","Brightness-Amp-Affect-25","Affect-EB-L","Affect-EB-H","Brightness-Circles-L","Brightness-Circles-H",0
11,12,6996,"0QKSdtytYo","Brightness-Amp-Affect-25","Amp-Piano-L","Amp-Piano-H","Speed-SP4-H","Speed-SP4-L",1
12,13,3183,"0QKSdtytYo","Brightness-Amp-Affect-25","Speed-SP4-H","Speed-SP4-L","Affect-SC-H","Affect-SC-L",0
13,14,3158,"0QKSdtytYo","Brightness-Amp-Affect-25","Speed-SP4-H","Speed-SP4-L","Brightness-Squares-L","Brightness-Squares-H",1
14,15,7877,"0QKSdtytYo","Brightness-Amp-Affect-25","Size-Diamonds-L","Size-Diamonds-H","Affect-SC-L","Affect-SC-H",1
15,16,4238,"0QKSdtytYo","Brightness-Amp-Affect-25","Speed-SP4-L","Speed-SP4-H","Brightness-Circles-H","Brightness-Circles-L",1
16,17,7214,"0QKSdtytYo","Brightness-Amp-Affect-25","Brightness-Triangles-L","Brightness-Triangles-H","Amp-Piano-H","Amp-Piano-L",1
17,18,6863,"0QKSdtytYo","Brightness-Amp-Affect-25","Affect-EB-L","Affect-EB-H","Speed-SP4-L","Speed-SP4-H",0
18,19,19453,"0QKSdtytYo","Brightness-Amp-Affect-25","Amp-Piano-L","Amp-Piano-H","Pitch-Tone-L","Pitch-Tone-H",0
19,20,5909,"0QKSdtytYo","Brightness-Amp-Affect-25","Affect-HS-L","Affect-HS-H","Noise-Hum-H","Noise-Hum-L",0
20,21,7205,"0QKSdtytYo","Brightness-Amp-Affect-25","Brightness-Triangles-H","Brightness-Triangles-L","Noise-Hum-L","Noise-Hum-H",0
21,22,12341,"0QKSdtytYo","Brightness-Amp-Affect-25","Affect-EB-H","Affect-EB-L","Noise-Hum-H","Noise-Hum-L",1
22,23,3510,"0QKSdtytYo","Brightness-Amp-Affect-25","Affect-SC-L","Affect-SC-H","Brightness-Circles-L","Brightness-Circles-H",0
23,24,6519,"0QKSdtytYo","Brightness-Amp-Affect-25","Color-RG-H","Color-RG-L","Affect-PD-H","Affect-PD-L",1
24,25,23373,"0QKSdtytYo","Brightness-Amp-Affect-25","Affect-EB-H","Affect-EB-L","Pitch-Tone-L","Pitch-Tone-H",1
25,26,5245,"0QKSdtytYo","Brightness-Amp-Affect-25","Amp-Tone-L","Amp-Tone-H","Affect-SC-H","Affect-SC-L",1
26,27,8461,"0QKSdtytYo","Brightness-Amp-Affect-25","Brightness-Triangles-H","Brightness-Triangles-L","Pitch-Tone-L","Pitch-Tone-H",1
27,28,4558,"0QKSdtytYo","Brightness-Amp-Affect-25","Pitch-Tone-H","Pitch-Tone-L","Affect-SC-L","Affect-SC-H",1
28,29,4203,"0QKSdtytYo","Brightness-Amp-Affect-25","Pitch-Tone-H","Pitch-Tone-L","Brightness-Circles-H","Brightness-Circles-L",0
29,30,5597,"0QKSdtytYo","Brightness-Amp-Affect-25","Noise-Hum-H","Noise-Hum-L","Affect-PD-H","Affect-PD-L",1
30,31,4703,"0QKSdtytYo","Brightness-Amp-Affect-25","Size-Diamonds-L","Size-Diamonds-H","Amp-Pulse-H","Amp-Pulse-L",1
31,32,6892,"0QKSdtytYo","Brightness-Amp-Affect-25","Amp-Piano-H","Amp-Piano-L","Affect-PD-L","Affect-PD-H",1
32,33,6445,"0QKSdtytYo","Brightness-Amp-Affect-25","Amp-Piano-H","Amp-Piano-L","Size-Diamonds-L","Size-Diamonds-H",1
33,34,4893,"0QKSdtytYo","Brightness-Amp-Affect-25","Pitch-Tone-H","Pitch-Tone-L","Affect-PD-H","Affect-PD-L",1
34,35,7247,"0QKSdtytYo","Brightness-Amp-Affect-25","Brightness-Triangles-L","Brightness-Triangles-H","Shape-BK2-L","Shape-BK2-H",0
35,36,4013,"0QKSdtytYo","Brightness-Amp-Affect-25","Affect-HS-H","Affect-HS-L","Speed-SP4-L","Speed-SP4-H",1
36,37,5589,"0QKSdtytYo","Brightness-Amp-Affect-25","Amp-Tone-H","Amp-Tone-L","Speed-SP4-L","Speed-SP4-H",1
37,38,4317,"0QKSdtytYo","Brightness-Amp-Affect-25","Brightness-Circles-L","Brightness-Circles-H","Affect-PD-L","Affect-PD-H",0
38,39,6606,"0QKSdtytYo","Brightness-Amp-Affect-25","Shape-BK2-H","Shape-BK2-L","Brightness-Circles-L","Brightness-Circles-H",1
39,40,5190,"0QKSdtytYo","Brightness-Amp-Affect-25","Brightness-Circles-H","Brightness-Circles-L","Amp-Hum-H","Amp-Hum-L",0
40,41,3526,"0QKSdtytYo","Brightness-Amp-Affect-25","Affect-HS-L","Affect-HS-H","Color-RG-H","Color-RG-L",0
41,42,22284,"0QKSdtytYo","Brightness-Amp-Affect-25","Amp-Piano-H","Amp-Piano-L","Noise-Hum-H","Noise-Hum-L",1
42,43,3966,"0QKSdtytYo","Brightness-Amp-Affect-25","Amp-Piano-L","Amp-Piano-H","Shape-BK2-L","Shape-BK2-H",0
43,44,7163,"0QKSdtytYo","Brightness-Amp-Affect-25","Speed-SP4-L","Speed-SP4-H","Amp-Pulse-L","Amp-Pulse-H",1
44,45,6060,"0QKSdtytYo","Brightness-Amp-Affect-25","Affect-EB-L","Affect-EB-H","Amp-Piano-H","Amp-Piano-L",1
45,46,4478,"0QKSdtytYo","Brightness-Amp-Affect-25","Shape-BK2-L","Shape-BK2-H","Brightness-Squares-H","Brightness-Squares-L",1
46,47,6997,"0QKSdtytYo","Brightness-Amp-Affect-25","Amp-Piano-H","Amp-Piano-L","Color-RG-L","Color-RG-H",1
47,48,7405,"0QKSdtytYo","Brightness-Amp-Affect-25","Brightness-Triangles-L","Brightness-Triangles-H","Color-RG-L","Color-RG-H",1
48,49,11579,"0QKSdtytYo","Brightness-Amp-Affect-25","Amp-Piano-H","Amp-Piano-L","Affect-SC-H","Affect-SC-L",0
49,50,9662,"0QKSdtytYo","Brightness-Amp-Affect-25","Pitch-Tone-H","Pitch-Tone-L","Amp-Hum-H","Amp-Hum-L",0
50,51,6764,"0QKSdtytYo","Brightness-Amp-Affect-25","Pitch-Tone-H","Pitch-Tone-L","Brightness-Squares-L","Brightness-Squares-H",1
51,52,2478,"0QKSdtytYo","Brightness-Amp-Affect-25","Color-RG-L","Color-RG-H","Brightness-Squares-H","Brightness-Squares-L",0
52,53,6029,"0QKSdtytYo","Brightness-Amp-Affect-25","Affect-SC-L","Affect-SC-H","Amp-Hum-L","Amp-Hum-H",0
53,54,4045,"0QKSdtytYo","Brightness-Amp-Affect-25","Amp-Piano-L","Amp-Piano-H","Brightness-Squares-H","Brightness-Squares-L",1
54,55,2710,"0QKSdtytYo","Brightness-Amp-Affect-25","Brightness-Triangles-L","Brightness-Triangles-H","Affect-SC-L","Affect-SC-H",0
55,56,5517,"0QKSdtytYo","Brightness-Amp-Affect-25","Color-RG-H","Color-RG-L","Amp-Pulse-H","Amp-Pulse-L",1
56,57,11692,"0QKSdtytYo","Brightness-Amp-Affect-25","Pitch-Tone-L","Pitch-Tone-H","Amp-Pulse-L","Amp-Pulse-H",0
57,58,4036,"0QKSdtytYo","Brightness-Amp-Affect-25","Amp-Tone-H","Amp-Tone-L","Shape-BK2-L","Shape-BK2-H",1
58,59,3454,"0QKSdtytYo","Brightness-Amp-Affect-25","Shape-BK2-H","Shape-BK2-L","Affect-PD-L","Affect-PD-H",0
59,60,5110,"0QKSdtytYo","Brightness-Amp-Affect-25","Affect-HS-L","Affect-HS-H","Size-Diamonds-H","Size-Diamonds-L",1
60,61,5197,"0QKSdtytYo","Brightness-Amp-Affect-25","Noise-Hum-L","Noise-Hum-H","Brightness-Circles-H","Brightness-Circles-L",0
61,62,2774,"0QKSdtytYo","Brightness-Amp-Affect-25","Brightness-Diamonds-L","Brightness-Diamonds-H","Speed-SP4-L","Speed-SP4-H",0
62,63,8773,"0QKSdtytYo","Brightness-Amp-Affect-25","Amp-Tone-H","Amp-Tone-L","Brightness-Circles-H","Brightness-Circles-L",0
63,64,4901,"0QKSdtytYo","Brightness-Amp-Affect-25","Affect-HS-L","Affect-HS-H","Pitch-Tone-L","Pitch-Tone-H",0
64,65,7436,"0QKSdtytYo","Brightness-Amp-Affect-25","Shape-BK2-H","Shape-BK2-L","Amp-Pulse-L","Amp-Pulse-H",1
65,66,3094,"0QKSdtytYo","Brightness-Amp-Affect-25","Brightness-Diamonds-H","Brightness-Diamonds-L","Shape-BK2-H","Shape-BK2-L",0
66,67,4230,"0QKSdtytYo","Brightness-Amp-Affect-25","Speed-SP4-L","Speed-SP4-H","Affect-PD-L","Affect-PD-H",0
67,68,10980,"0QKSdtytYo","Brightness-Amp-Affect-25","Noise-Hum-H","Noise-Hum-L","Amp-Hum-L","Amp-Hum-H",0
68,69,4685,"0QKSdtytYo","Brightness-Amp-Affect-25","Color-RG-L","Color-RG-H","Amp-Hum-L","Amp-Hum-H",0
69,70,3374,"0QKSdtytYo","Brightness-Amp-Affect-25","Brightness-Circles-H","Brightness-Circles-L","Affect-SC-H","Affect-SC-L",0
70,71,5116,"0QKSdtytYo","Brightness-Amp-Affect-25","Noise-Hum-L","Noise-Hum-H","Brightness-Squares-L","Brightness-Squares-H",1
71,72,3102,"0QKSdtytYo","Brightness-Amp-Affect-25","Affect-EB-H","Affect-EB-L","Color-RG-H","Color-RG-L",1
72,73,5780,"0QKSdtytYo","Brightness-Amp-Affect-25","Affect-HS-H","Affect-HS-L","Amp-Piano-L","Amp-Piano-H",1
73,74,4886,"0QKSdtytYo","Brightness-Amp-Affect-25","Affect-EB-H","Affect-EB-L","Size-Diamonds-H","Size-Diamonds-L",0
74,75,4710,"0QKSdtytYo","Brightness-Amp-Affect-25","Brightness-Diamonds-L","Brightness-Diamonds-H","Size-Diamonds-L","Size-Diamonds-H",0
75,76,6541,"0QKSdtytYo","Brightness-Amp-Affect-25","Speed-SP4-H","Speed-SP4-L","Amp-Hum-H","Amp-Hum-L",0
76,77,2526,"0QKSdtytYo","Brightness-Amp-Affect-25","Affect-EB-L","Affect-EB-H","Shape-BK2-H","Shape-BK2-L",1
77,78,12892,"0QKSdtytYo","Brightness-Amp-Affect-25","Amp-Tone-H","Amp-Tone-L","Pitch-Tone-H","Pitch-Tone-L",1
78,79,7110,"0QKSdtytYo","Brightness-Amp-Affect-25","Amp-Piano-L","Amp-Piano-H","Brightness-Circles-L","Brightness-Circles-H",0
79,80,3064,"0QKSdtytYo","Brightness-Amp-Affect-25","Brightness-Diamonds-H","Brightness-Diamonds-L","Color-RG-H","Color-RG-L",1
80,81,3416,"0QKSdtytYo","Brightness-Amp-Affect-25","Brightness-Triangles-H","Brightness-Triangles-L","Size-Diamonds-L","Size-Diamonds-H",0
81,82,5165,"0QKSdtytYo","Brightness-Amp-Affect-25","Shape-BK2-L","Shape-BK2-H","Amp-Hum-H","Amp-Hum-L",1
82,83,4878,"0QKSdtytYo","Brightness-Amp-Affect-25","Affect-HS-H","Affect-HS-L","Brightness-Circles-L","Brightness-Circles-H",1
83,84,2358,"0QKSdtytYo","Brightness-Amp-Affect-25","Color-RG-L","Color-RG-H","Brightness-Circles-L","Brightness-Circles-H",1
84,85,5516,"0QKSdtytYo","Brightness-Amp-Affect-25","Amp-Tone-L","Amp-Tone-H","Color-RG-L","Color-RG-H",0
85,86,4927,"0QKSdtytYo","Brightness-Amp-Affect-25","Size-Diamonds-H","Size-Diamonds-L","Affect-PD-H","Affect-PD-L",0
86,87,4781,"0QKSdtytYo","Brightness-Amp-Affect-25","Brightness-Circles-L","Brightness-Circles-H","Amp-Pulse-L","Amp-Pulse-H",1
87,88,9918,"0QKSdtytYo","Brightness-Amp-Affect-25","Amp-Piano-L","Amp-Piano-H","Brightness-Circles-L","Brightness-Circles-H",0
88,89,4228,"0QKSdtytYo","Brightness-Amp-Affect-25","Color-RG-L","Color-RG-H","Affect-SC-L","Affect-SC-H",0
89,90,4581,"0QKSdtytYo","Brightness-Amp-Affect-25","Brightness-Diamonds-L","Brightness-Diamonds-H","Noise-Hum-H","Noise-Hum-L",0
90,91,2943,"0QKSdtytYo","Brightness-Amp-Affect-25","Size-Diamonds-L","Size-Diamonds-H","Brightness-Circles-H","Brightness-Circles-L",1
91,92,6882,"0QKSdtytYo","Brightness-Amp-Affect-25","Noise-Hum-L","Noise-Hum-H","Amp-Pulse-H","Amp-Pulse-L",0
92,93,3358,"0QKSdtytYo","Brightness-Amp-Affect-25","Shape-BK2-H","Shape-BK2-L","Affect-SC-H","Affect-SC-L",0
93,94,7646,"0QKSdtytYo","Brightness-Amp-Affect-25","Affect-SC-H","Affect-SC-L","Amp-Pulse-H","Amp-Pulse-L",1
94,95,7236,"0QKSdtytYo","Brightness-Amp-Affect-25","Amp-Tone-L","Amp-Tone-H","Noise-Hum-H","Noise-Hum-L",1
95,96,5766,"0QKSdtytYo","Brightness-Amp-Affect-25","Amp-Tone-L","Amp-Tone-H","Size-Diamonds-H","Size-Diamonds-L",1
0,1,11185,"14Kcp8eWnj","Noise-Brightness-Color-13","Brightness-Triangles-H","Brightness-Triangles-L","Pitch-Piano-H","Pitch-Piano-L",0
1,2,7134,"14Kcp8eWnj","Noise-Brightness-Color-13","Color-RB-L","Color-RB-H","Brightness-Squares-H","Brightness-Squares-L",0
2,3,7009,"14Kcp8eWnj","Noise-Brightness-Color-13","Noise-Piano-L","Noise-Piano-H","Affect-HS-H","Affect-HS-L",0
3,4,15851,"14Kcp8eWnj","Noise-Brightness-Color-13","Noise-Hum-H","Noise-Hum-L","Pitch-Piano-H","Pitch-Piano-L",0
4,5,6935,"14Kcp8eWnj","Noise-Brightness-Color-13","Color-YB-L","Color-YB-H","Amp-Tone-L","Amp-Tone-H",0
5,6,11696,"14Kcp8eWnj","Noise-Brightness-Color-13","Noise-Hum-L","Noise-Hum-H","Color-RB-L","Color-RB-H",0
6,7,9688,"14Kcp8eWnj","Noise-Brightness-Color-13","Brightness-Diamonds-L","Brightness-Diamonds-H","Noise-Pulse-L","Noise-Pulse-H",1
7,8,4978,"14Kcp8eWnj","Noise-Brightness-Color-13","Brightness-Diamonds-H","Brightness-Diamonds-L","Speed-SP2-L","Speed-SP2-H",1
8,9,5971,"14Kcp8eWnj","Noise-Brightness-Color-13","Brightness-Triangles-L","Brightness-Triangles-H","Shape-BK2-L","Shape-BK2-H",0
9,10,17702,"14Kcp8eWnj","Noise-Brightness-Color-13","Pitch-Piano-L","Pitch-Piano-H","Color-RB-H","Color-RB-L",0
10,11,6747,"14Kcp8eWnj","Noise-Brightness-Color-13","Size-Triangles-L","Size-Triangles-H","Color-RB-H","Color-RB-L",0
11,12,6787,"14Kcp8eWnj","Noise-Brightness-Color-13","Color-RY-H","Color-RY-L","Noise-Tone-H","Noise-Tone-L",0
12,13,11181,"14Kcp8eWnj","Noise-Brightness-Color-13","Noise-Tone-L","Noise-Tone-H","Color-RG-L","Color-RG-H",0
13,14,7548,"14Kcp8eWnj","Noise-Brightness-Color-13","Amp-Tone-L","Amp-Tone-H","Color-RG-H","Color-RG-L",0
14,15,9309,"14Kcp8eWnj","Noise-Brightness-Color-13","Shape-BK2-L","Shape-BK2-H","Noise-Tone-H","Noise-Tone-L",1
15,16,6926,"14Kcp8eWnj","Noise-Brightness-Color-13","Color-YB-H","Color-YB-L","Size-Triangles-L","Size-Triangles-H",1
16,17,5002,"14Kcp8eWnj","Noise-Brightness-Color-13","Affect-HS-H","Affect-HS-L","Brightness-Circles-L","Brightness-Circles-H",1
17,18,3533,"14Kcp8eWnj","Noise-Brightness-Color-13","Color-RY-L","Color-RY-H","Affect-HS-H","Affect-HS-L",0
18,19,3755,"14Kcp8eWnj","Noise-Brightness-Color-13","Color-YB-H","Color-YB-L","Speed-SP2-H","Speed-SP2-L",0
19,20,4376,"14Kcp8eWnj","Noise-Brightness-Color-13","Shape-BK2-L","Shape-BK2-H","Color-RG-H","Color-RG-L",0
20,21,6356,"14Kcp8eWnj","Noise-Brightness-Color-13","Brightness-Diamonds-H","Brightness-Diamonds-L","Color-RG-H","Color-RG-L",1
21,22,6806,"14Kcp8eWnj","Noise-Brightness-Color-13","Noise-Tone-L","Noise-Tone-H","Color-RB-H","Color-RB-L",1
22,23,7303,"14Kcp8eWnj","Noise-Brightness-Color-13","Brightness-Diamonds-H","Brightness-Diamonds-L","Noise-Tone-H","Noise-Tone-L",1
23,24,6836,"14Kcp8eWnj","Noise-Brightness-Color-13","Noise-Tone-L","Noise-Tone-H","Brightness-Circles-H","Brightness-Circles-L",0
24,25,7608,"14Kcp8eWnj","Noise-Brightness-Color-13","Affect-HS-H","Affect-HS-L","Noise-Pulse-H","Noise-Pulse-L",1
25,26,14494,"14Kcp8eWnj","Noise-Brightness-Color-13","Amp-Tone-H","Amp-Tone-L","Noise-Tone-L","Noise-Tone-H",0
26,27,6767,"14Kcp8eWnj","Noise-Brightness-Color-13","Color-YB-H","Color-YB-L","Noise-Tone-L","Noise-Tone-H",0
27,28,6353,"14Kcp8eWnj","Noise-Brightness-Color-13","Affect-HS-H","Affect-HS-L","Color-RB-L","Color-RB-H",1
28,29,3791,"14Kcp8eWnj","Noise-Brightness-Color-13","Color-YB-L","Color-YB-H","Brightness-Diamonds-L","Brightness-Diamonds-H",0
29,30,6086,"14Kcp8eWnj","Noise-Brightness-Color-13","Shape-BK2-H","Shape-BK2-L","Noise-Pulse-L","Noise-Pulse-H",0
30,31,8432,"14Kcp8eWnj","Noise-Brightness-Color-13","Color-YB-L","Color-YB-H","Shape-BK2-H","Shape-BK2-L",0
31,32,4374,"14Kcp8eWnj","Noise-Brightness-Color-13","Brightness-Diamonds-L","Brightness-Diamonds-H","Color-RB-H","Color-RB-L",0
32,33,9975,"14Kcp8eWnj","Noise-Brightness-Color-13","Noise-Piano-H","Noise-Piano-L","Speed-SP2-H","Speed-SP2-L",1
33,34,3561,"14Kcp8eWnj","Noise-Brightness-Color-13","Brightness-Triangles-H","Brightness-Triangles-L","Speed-SP2-H","Speed-SP2-L",0
34,35,7651,"14Kcp8eWnj","Noise-Brightness-Color-13","Noise-Hum-H","Noise-Hum-L","Speed-SP2-L","Speed-SP2-H",0
35,36,13408,"14Kcp8eWnj","Noise-Brightness-Color-13","Noise-Piano-L","Noise-Piano-H","Amp-Tone-L","Amp-Tone-H",1
36,37,6271,"14Kcp8eWnj","Noise-Brightness-Color-13","Amp-Tone-H","Amp-Tone-L","Brightness-Circles-L","Brightness-Circles-H",1
37,38,3357,"14Kcp8eWnj","Noise-Brightness-Color-13","Brightness-Triangles-L","Brightness-Triangles-H","Color-RB-H","Color-RB-L",1
38,39,26574,"14Kcp8eWnj","Noise-Brightness-Color-13","Pitch-Piano-H","Pitch-Piano-L","Noise-Pulse-L","Noise-Pulse-H",0
39,40,3615,"14Kcp8eWnj","Noise-Brightness-Color-13","Brightness-Triangles-H","Brightness-Triangles-L","Size-Triangles-L","Size-Triangles-H",1
40,41,6262,"14Kcp8eWnj","Noise-Brightness-Color-13","Color-RY-L","Color-RY-H","Amp-Tone-L","Amp-Tone-H",1
41,42,10464,"14Kcp8eWnj","Noise-Brightness-Color-13","Amp-Tone-L","Amp-Tone-H","Noise-Pulse-H","Noise-Pulse-L",0
42,43,8591,"14Kcp8eWnj","Noise-Brightness-Color-13","Affect-HS-L","Affect-HS-H","Noise-Tone-L","Noise-Tone-H",1
43,44,10252,"14Kcp8eWnj","Noise-Brightness-Color-13","Size-Triangles-L","Size-Triangles-H","Noise-Pulse-H","Noise-Pulse-L",1
44,45,7102,"14Kcp8eWnj","Noise-Brightness-Color-13","Pitch-Piano-H","Pitch-Piano-L","Color-RG-L","Color-RG-H",1
45,46,4676,"14Kcp8eWnj","Noise-Brightness-Color-13","Speed-SP2-L","Speed-SP2-H","Color-RB-H","Color-RB-L",0
46,47,11455,"14Kcp8eWnj","Noise-Brightness-Color-13","Noise-Hum-L","Noise-Hum-H","Amp-Tone-L","Amp-Tone-H",1
47,48,6617,"14Kcp8eWnj","Noise-Brightness-Color-13","Color-RB-H","Color-RB-L","Noise-Tone-L","Noise-Tone-H",1
48,49,7818,"14Kcp8eWnj","Noise-Brightness-Color-13","Brightness-Diamonds-H","Brightness-Diamonds-L","Noise-Tone-H","Noise-Tone-L",1
49,50,10977,"14Kcp8eWnj","Noise-Brightness-Color-13","Color-YB-H","Color-YB-L","Pitch-Piano-H","Pitch-Piano-L",0
50,51,11656,"14Kcp8eWnj","Noise-Brightness-Color-13","Pitch-Piano-H","Pitch-Piano-L","Noise-Tone-H","Noise-Tone-L",1
51,52,4148,"14Kcp8eWnj","Noise-Brightness-Color-13","Speed-SP2-L","Speed-SP2-H","Color-RG-L","Color-RG-H",1
52,53,8515,"14Kcp8eWnj","Noise-Brightness-Color-13","Noise-Hum-L","Noise-Hum-H","Affect-HS-L","Affect-HS-H",1
53,54,6790,"14Kcp8eWnj","Noise-Brightness-Color-13","Noise-Tone-L","Noise-Tone-H","Brightness-Squares-L","Brightness-Squares-H",1
54,55,8896,"14Kcp8eWnj","Noise-Brightness-Color-13","Pitch-Piano-H","Pitch-Piano-L","Brightness-Squares-L","Brightness-Squares-H",0
55,56,6977,"14Kcp8eWnj","Noise-Brightness-Color-13","Pitch-Piano-H","Pitch-Piano-L","Brightness-Circles-H","Brightness-Circles-L",1
56,57,7225,"14Kcp8eWnj","Noise-Brightness-Color-13","Noise-Piano-H","Noise-Piano-L","Brightness-Diamonds-H","Brightness-Diamonds-L",1
57,58,7183,"14Kcp8eWnj","Noise-Brightness-Color-13","Speed-SP2-H","Speed-SP2-L","Noise-Pulse-L","Noise-Pulse-H",0
58,59,7610,"14Kcp8eWnj","Noise-Brightness-Color-13","Brightness-Diamonds-H","Brightness-Diamonds-L","Pitch-Piano-H","Pitch-Piano-L",0
59,60,4531,"14Kcp8eWnj","Noise-Brightness-Color-13","Size-Triangles-L","Size-Triangles-H","Brightness-Squares-L","Brightness-Squares-H",0
60,61,4626,"14Kcp8eWnj","Noise-Brightness-Color-13","Shape-BK2-H","Shape-BK2-L","Brightness-Squares-H","Brightness-Squares-L",0
61,62,7574,"14Kcp8eWnj","Noise-Brightness-Color-13","Brightness-Triangles-H","Brightness-Triangles-L","Noise-Tone-L","Noise-Tone-H",0
62,63,3330,"14Kcp8eWnj","Noise-Brightness-Color-13","Speed-SP2-H","Speed-SP2-L","Brightness-Circles-H","Brightness-Circles-L",0
63,64,5738,"14Kcp8eWnj","Noise-Brightness-Color-13","Color-RY-H","Color-RY-L","Pitch-Piano-H","Pitch-Piano-L",1
64,65,3593,"14Kcp8eWnj","Noise-Brightness-Color-13","Speed-SP2-H","Speed-SP2-L","Brightness-Squares-L","Brightness-Squares-H",1
65,66,8286,"14Kcp8eWnj","Noise-Brightness-Color-13","Noise-Piano-L","Noise-Piano-H","Color-RB-H","Color-RB-L",1
66,67,8560,"14Kcp8eWnj","Noise-Brightness-Color-13","Color-RB-H","Color-RB-L","Noise-Pulse-H","Noise-Pulse-L",0
67,68,4406,"14Kcp8eWnj","Noise-Brightness-Color-13","Color-RY-H","Color-RY-L","Speed-SP2-H","Speed-SP2-L",1
68,69,11942,"14Kcp8eWnj","Noise-Brightness-Color-13","Noise-Hum-H","Noise-Hum-L","Shape-BK2-L","Shape-BK2-H",1
69,70,4027,"14Kcp8eWnj","Noise-Brightness-Color-13","Color-RY-L","Color-RY-H","Shape-BK2-L","Shape-BK2-H",1
70,71,4499,"14Kcp8eWnj","Noise-Brightness-Color-13","Color-RB-H","Color-RB-L","Brightness-Circles-L","Brightness-Circles-H",1
71,72,4947,"14Kcp8eWnj","Noise-Brightness-Color-13","Brightness-Triangles-L","Brightness-Triangles-H","Affect-HS-L","Affect-HS-H",0
72,73,3657,"14Kcp8eWnj","Noise-Brightness-Color-13","Size-Triangles-H","Size-Triangles-L","Color-RG-L","Color-RG-H",0
73,74,5486,"14Kcp8eWnj","Noise-Brightness-Color-13","Noise-Hum-L","Noise-Hum-H","Size-Triangles-L","Size-Triangles-H",0
74,75,4951,"14Kcp8eWnj","Noise-Brightness-Color-13","Size-Triangles-L","Size-Triangles-H","Noise-Tone-L","Noise-Tone-H",0
75,76,2974,"14Kcp8eWnj","Noise-Brightness-Color-13","Affect-HS-L","Affect-HS-H","Brightness-Squares-H","Brightness-Squares-L",1
76,77,3044,"14Kcp8eWnj","Noise-Brightness-Color-13","Color-RY-L","Color-RY-H","Brightness-Diamonds-H","Brightness-Diamonds-L",0
77,78,4636,"14Kcp8eWnj","Noise-Brightness-Color-13","Brightness-Triangles-L","Brightness-Triangles-H","Amp-Tone-H","Amp-Tone-L",1
78,79,6702,"14Kcp8eWnj","Noise-Brightness-Color-13","Amp-Tone-L","Amp-Tone-H","Brightness-Squares-H","Brightness-Squares-L",1
79,80,3149,"14Kcp8eWnj","Noise-Brightness-Color-13","Size-Triangles-L","Size-Triangles-H","Brightness-Circles-H","Brightness-Circles-L",1
80,81,7353,"14Kcp8eWnj","Noise-Brightness-Color-13","Speed-SP2-L","Speed-SP2-H","Noise-Tone-H","Noise-Tone-L",0
81,82,4603,"14Kcp8eWnj","Noise-Brightness-Color-13","Shape-BK2-L","Shape-BK2-H","Brightness-Circles-L","Brightness-Circles-H",0
82,83,5116,"14Kcp8eWnj","Noise-Brightness-Color-13","Brightness-Diamonds-L","Brightness-Diamonds-H","Amp-Tone-H","Amp-Tone-L",1
83,84,14635,"14Kcp8eWnj","Noise-Brightness-Color-13","Noise-Piano-H","Noise-Piano-L","Pitch-Piano-L","Pitch-Piano-H",1
84,85,3150,"14Kcp8eWnj","Noise-Brightness-Color-13","Brightness-Diamonds-L","Brightness-Diamonds-H","Affect-HS-L","Affect-HS-H",0
85,86,4084,"14Kcp8eWnj","Noise-Brightness-Color-13","Brightness-Diamonds-H","Brightness-Diamonds-L","Size-Triangles-L","Size-Triangles-H",1
86,87,4536,"14Kcp8eWnj","Noise-Brightness-Color-13","Brightness-Diamonds-L","Brightness-Diamonds-H","Shape-BK2-L","Shape-BK2-H",0
87,88,7744,"14Kcp8eWnj","Noise-Brightness-Color-13","Amp-Tone-H","Amp-Tone-L","Color-RB-L","Color-RB-H",0
88,89,5074,"14Kcp8eWnj","Noise-Brightness-Color-13","Shape-BK2-L","Shape-BK2-H","Color-RB-L","Color-RB-H",1
89,90,8061,"14Kcp8eWnj","Noise-Brightness-Color-13","Noise-Piano-H","Noise-Piano-L","Shape-BK2-L","Shape-BK2-H",0
90,91,2639,"14Kcp8eWnj","Noise-Brightness-Color-13","Affect-HS-H","Affect-HS-L","Color-RG-H","Color-RG-L",1
91,92,5160,"14Kcp8eWnj","Noise-Brightness-Color-13","Noise-Piano-L","Noise-Piano-H","Size-Triangles-L","Size-Triangles-H",0
92,93,2758,"14Kcp8eWnj","Noise-Brightness-Color-13","Color-YB-L","Color-YB-H","Affect-HS-H","Affect-HS-L",1
93,94,3838,"14Kcp8eWnj","Noise-Brightness-Color-13","Brightness-Diamonds-H","Brightness-Diamonds-L","Color-RB-L","Color-RB-H",0
94,95,2891,"14Kcp8eWnj","Noise-Brightness-Color-13","Color-RY-H","Color-RY-L","Size-Triangles-H","Size-Triangles-L",1
95,96,6604,"14Kcp8eWnj","Noise-Brightness-Color-13","Noise-Hum-H","Noise-Hum-L","Brightness-Diamonds-H","Brightness-Diamonds-L",1
0,1,3236,"14wn5Hs9h1","Amp-Size-Speed-2","Color-RB-H","Color-RB-L","Size-Circles-H","Size-Circles-L",0
1,2,6396,"14wn5Hs9h1","Amp-Size-Speed-2","Amp-Hum-H","Amp-Hum-L","Speed-SP1-H","Speed-SP1-L",0
2,3,5917,"14wn5Hs9h1","Amp-Size-Speed-2","Speed-SP3-H","Speed-SP3-L","Pitch-Piano-L","Pitch-Piano-H",0
3,4,4880,"14wn5Hs9h1","Amp-Size-Speed-2","Amp-Pulse-H","Amp-Pulse-L","Color-RB-L","Color-RB-H",1
4,5,3844,"14wn5Hs9h1","Amp-Size-Speed-2","Amp-Pulse-L","Amp-Pulse-H","Brightness-Circles-L","Brightness-Circles-H",0
5,6,3987,"14wn5Hs9h1","Amp-Size-Speed-2","Size-Squares-H","Size-Squares-L","Color-RB-H","Color-RB-L",0
6,7,6469,"14wn5Hs9h1","Amp-Size-Speed-2","Size-Diamonds-H","Size-Diamonds-L","Noise-Tone-L","Noise-Tone-H",1
7,8,6814,"14wn5Hs9h1","Amp-Size-Speed-2","Noise-Tone-H","Noise-Tone-L","Amp-Tone-L","Amp-Tone-H",1
8,9,4230,"14wn5Hs9h1","Amp-Size-Speed-2","Size-Diamonds-H","Size-Diamonds-L","Speed-SP1-H","Speed-SP1-L",1
9,10,3171,"14wn5Hs9h1","Amp-Size-Speed-2","Speed-SP3-H","Speed-SP3-L","Color-RB-L","Color-RB-H",1
10,11,9174,"14wn5Hs9h1","Amp-Size-Speed-2","Noise-Tone-L","Noise-Tone-H","Amp-Piano-H","Amp-Piano-L",1
11,12,4423,"14wn5Hs9h1","Amp-Size-Speed-2","Size-Squares-H","Size-Squares-L","Shape-BK2-L","Shape-BK2-H",0
12,13,4963,"14wn5Hs9h1","Amp-Size-Speed-2","Speed-SP2-L","Speed-SP2-H","Noise-Tone-H","Noise-Tone-L",1
13,14,7602,"14wn5Hs9h1","Amp-Size-Speed-2","Amp-Hum-H","Amp-Hum-L","Pitch-Piano-L","Pitch-Piano-H",0
14,15,4818,"14wn5Hs9h1","Amp-Size-Speed-2","Brightness-Circles-H","Brightness-Circles-L","Speed-SP4-H","Speed-SP4-L",0
15,16,3140,"14wn5Hs9h1","Amp-Size-Speed-2","Size-Squares-L","Size-Squares-H","Speed-SP1-H","Speed-SP1-L",0
16,17,3314,"14wn5Hs9h1","Amp-Size-Speed-2","Shape-BK2-H","Shape-BK2-L","Speed-SP1-L","Speed-SP1-H",1
17,18,4670,"14wn5Hs9h1","Amp-Size-Speed-2","Speed-SP2-L","Speed-SP2-H","Pitch-Piano-H","Pitch-Piano-L",0
18,19,4403,"14wn5Hs9h1","Amp-Size-Speed-2","Amp-Pulse-H","Amp-Pulse-L","Size-Circles-H","Size-Circles-L",1
19,20,4663,"14wn5Hs9h1","Amp-Size-Speed-2","Noise-Tone-L","Noise-Tone-H","Size-Triangles-H","Size-Triangles-L",1
20,21,4094,"14wn5Hs9h1","Amp-Size-Speed-2","Amp-Hum-L","Amp-Hum-H","Affect-SC-H","Affect-SC-L",1
21,22,3658,"14wn5Hs9h1","Amp-Size-Speed-2","Size-Diamonds-H","Size-Diamonds-L","Brightness-Circles-H","Brightness-Circles-L",1
22,23,4680,"14wn5Hs9h1","Amp-Size-Speed-2","Speed-SP2-H","Speed-SP2-L","Brightness-Circles-L","Brightness-Circles-H",1
23,24,2858,"14wn5Hs9h1","Amp-Size-Speed-2","Speed-SP3-H","Speed-SP3-L","Size-Squares-L","Size-Squares-H",0
24,25,3655,"14wn5Hs9h1","Amp-Size-Speed-2","Brightness-Circles-H","Brightness-Circles-L","Size-Triangles-H","Size-Triangles-L",1
25,26,2663,"14wn5Hs9h1","Amp-Size-Speed-2","Size-Squares-H","Size-Squares-L","Speed-SP4-L","Speed-SP4-H",0
26,27,4332,"14wn5Hs9h1","Amp-Size-Speed-2","Speed-SP1-L","Speed-SP1-H","Amp-Piano-L","Amp-Piano-H",0
27,28,5017,"14wn5Hs9h1","Amp-Size-Speed-2","Size-Squares-H","Size-Squares-L","Amp-Pulse-L","Amp-Pulse-H",1
28,29,3198,"14wn5Hs9h1","Amp-Size-Speed-2","Size-Squares-L","Size-Squares-H","Brightness-Circles-L","Brightness-Circles-H",1
29,30,4158,"14wn5Hs9h1","Amp-Size-Speed-2","Size-Diamonds-H","Size-Diamonds-L","Pitch-Piano-L","Pitch-Piano-H",1
30,31,3792,"14wn5Hs9h1","Amp-Size-Speed-2","Color-RB-L","Color-RB-H","Amp-Piano-H","Amp-Piano-L",1
31,32,3192,"14wn5Hs9h1","Amp-Size-Speed-2","Affect-SC-H","Affect-SC-L","Speed-SP4-H","Speed-SP4-L",0
32,33,4822,"14wn5Hs9h1","Amp-Size-Speed-2","Noise-Tone-L","Noise-Tone-H","Size-Circles-L","Size-Circles-H",0
33,34,4706,"14wn5Hs9h1","Amp-Size-Speed-2","Speed-SP1-H","Speed-SP1-L","Amp-Tone-H","Amp-Tone-L",0
34,35,4714,"14wn5Hs9h1","Amp-Size-Speed-2","Amp-Hum-H","Amp-Hum-L","Shape-BK2-H","Shape-BK2-L",0
35,36,3962,"14wn5Hs9h1","Amp-Size-Speed-2","Pitch-Piano-L","Pitch-Piano-H","Speed-SP1-H","Speed-SP1-L",0
36,37,7230,"14wn5Hs9h1","Amp-Size-Speed-2","Pitch-Piano-L","Pitch-Piano-H","Amp-Tone-H","Amp-Tone-L",0
37,38,4213,"14wn5Hs9h1","Amp-Size-Speed-2","Affect-SC-L","Affect-SC-H","Amp-Piano-H","Amp-Piano-L",1
38,39,3569,"14wn5Hs9h1","Amp-Size-Speed-2","Affect-SC-H","Affect-SC-L","Amp-Tone-L","Amp-Tone-H",1
39,40,3177,"14wn5Hs9h1","Amp-Size-Speed-2","Affect-SC-H","Affect-SC-L","Speed-SP1-L","Speed-SP1-H",1
40,41,2811,"14wn5Hs9h1","Amp-Size-Speed-2","Speed-SP3-L","Speed-SP3-H","Shape-BK2-L","Shape-BK2-H",0
41,42,4279,"14wn5Hs9h1","Amp-Size-Speed-2","Pitch-Piano-L","Pitch-Piano-H","Size-Triangles-H","Size-Triangles-L",1
42,43,2563,"14wn5Hs9h1","Amp-Size-Speed-2","Size-Diamonds-L","Size-Diamonds-H","Affect-SC-L","Affect-SC-H",0
43,44,4771,"14wn5Hs9h1","Amp-Size-Speed-2","Speed-SP2-H","Speed-SP2-L","Amp-Pulse-H","Amp-Pulse-L",1
44,45,4605,"14wn5Hs9h1","Amp-Size-Speed-2","Brightness-Circles-H","Brightness-Circles-L","Amp-Piano-L","Amp-Piano-H",1
45,46,2819,"14wn5Hs9h1","Amp-Size-Speed-2","Size-Squares-L","Size-Squares-H","Speed-SP1-H","Speed-SP1-L",0
46,47,2701,"14wn5Hs9h1","Amp-Size-Speed-2","Color-RB-H","Color-RB-L","Speed-SP1-H","Speed-SP1-L",0
47,48,2586,"14wn5Hs9h1","Amp-Size-Speed-2","Speed-SP2-H","Speed-SP2-L","Affect-SC-H","Affect-SC-L",0
48,49,2544,"14wn5Hs9h1","Amp-Size-Speed-2","Brightness-Circles-L","Brightness-Circles-H","Size-Circles-L","Size-Circles-H",1
49,50,4907,"14wn5Hs9h1","Amp-Size-Speed-2","Pitch-Piano-L","Pitch-Piano-H","Speed-SP4-L","Speed-SP4-H",1
50,51,3909,"14wn5Hs9h1","Amp-Size-Speed-2","Speed-SP2-L","Speed-SP2-H","Size-Squares-H","Size-Squares-L",0
51,52,4738,"14wn5Hs9h1","Amp-Size-Speed-2","Color-RB-L","Color-RB-H","Amp-Tone-L","Amp-Tone-H",0
52,53,3119,"14wn5Hs9h1","Amp-Size-Speed-2","Speed-SP3-L","Speed-SP3-H","Brightness-Circles-H","Brightness-Circles-L",1
53,54,3980,"14wn5Hs9h1","Amp-Size-Speed-2","Speed-SP3-L","Speed-SP3-H","Amp-Pulse-H","Amp-Pulse-L",1
54,55,3472,"14wn5Hs9h1","Amp-Size-Speed-2","Speed-SP1-L","Speed-SP1-H","Size-Triangles-H","Size-Triangles-L",0
55,56,4755,"14wn5Hs9h1","Amp-Size-Speed-2","Noise-Tone-H","Noise-Tone-L","Speed-SP1-H","Speed-SP1-L",0
56,57,2936,"14wn5Hs9h1","Amp-Size-Speed-2","Affect-SC-H","Affect-SC-L","Size-Triangles-L","Size-Triangles-H",0
57,58,4578,"14wn5Hs9h1","Amp-Size-Speed-2","Shape-BK2-L","Shape-BK2-H","Amp-Tone-H","Amp-Tone-L",1
58,59,2518,"14wn5Hs9h1","Amp-Size-Speed-2","Shape-BK2-H","Shape-BK2-L","Speed-SP4-H","Speed-SP4-L",0
59,60,6119,"14wn5Hs9h1","Amp-Size-Speed-2","Pitch-Piano-H","Pitch-Piano-L","Amp-Piano-L","Amp-Piano-H",0
60,61,2832,"14wn5Hs9h1","Amp-Size-Speed-2","Speed-SP2-H","Speed-SP2-L","Shape-BK2-L","Shape-BK2-H",1
61,62,3840,"14wn5Hs9h1","Amp-Size-Speed-2","Size-Squares-H","Size-Squares-L","Amp-Tone-L","Amp-Tone-H",1
62,63,3753,"14wn5Hs9h1","Amp-Size-Speed-2","Amp-Pulse-H","Amp-Pulse-L","Size-Triangles-L","Size-Triangles-H",0
63,64,4728,"14wn5Hs9h1","Amp-Size-Speed-2","Amp-Pulse-H","Amp-Pulse-L","Size-Squares-L","Size-Squares-H",1
64,65,4674,"14wn5Hs9h1","Amp-Size-Speed-2","Shape-BK2-L","Shape-BK2-H","Amp-Piano-L","Amp-Piano-H",0
65,66,3486,"14wn5Hs9h1","Amp-Size-Speed-2","Size-Squares-L","Size-Squares-H","Noise-Tone-H","Noise-Tone-L",1
66,67,3188,"14wn5Hs9h1","Amp-Size-Speed-2","Brightness-Circles-H","Brightness-Circles-L","Speed-SP1-L","Speed-SP1-H",1
67,68,2497,"14wn5Hs9h1","Amp-Size-Speed-2","Speed-SP2-L","Speed-SP2-H","Color-RB-L","Color-RB-H",0
68,69,2495,"14wn5Hs9h1","Amp-Size-Speed-2","Affect-SC-H","Affect-SC-L","Size-Circles-H","Size-Circles-L",1
69,70,3147,"14wn5Hs9h1","Amp-Size-Speed-2","Shape-BK2-L","Shape-BK2-H","Size-Triangles-L","Size-Triangles-H",1
70,71,4428,"14wn5Hs9h1","Amp-Size-Speed-2","Speed-SP3-H","Speed-SP3-L","Noise-Tone-L","Noise-Tone-H",0
71,72,3410,"14wn5Hs9h1","Amp-Size-Speed-2","Size-Squares-L","Size-Squares-H","Amp-Piano-H","Amp-Piano-L",0
72,73,4375,"14wn5Hs9h1","Amp-Size-Speed-2","Amp-Pulse-L","Amp-Pulse-H","Speed-SP1-H","Speed-SP1-L",1
73,74,2934,"14wn5Hs9h1","Amp-Size-Speed-2","Speed-SP3-L","Speed-SP3-H","Affect-SC-L","Affect-SC-H",0
74,75,4118,"14wn5Hs9h1","Amp-Size-Speed-2","Amp-Pulse-L","Amp-Pulse-H","Speed-SP4-H","Speed-SP4-L",1
75,76,3676,"14wn5Hs9h1","Amp-Size-Speed-2","Size-Diamonds-L","Size-Diamonds-H","Shape-BK2-L","Shape-BK2-H",1
76,77,5460,"14wn5Hs9h1","Amp-Size-Speed-2","Amp-Pulse-H","Amp-Pulse-L","Noise-Tone-H","Noise-Tone-L",1
77,78,5957,"14wn5Hs9h1","Amp-Size-Speed-2","Amp-Hum-L","Amp-Hum-H","Noise-Tone-H","Noise-Tone-L",1
78,79,5289,"14wn5Hs9h1","Amp-Size-Speed-2","Amp-Pulse-L","Amp-Pulse-H","Speed-SP1-L","Speed-SP1-H",0
79,80,3505,"14wn5Hs9h1","Amp-Size-Speed-2","Amp-Pulse-L","Amp-Pulse-H","Shape-BK2-L","Shape-BK2-H",0
80,81,5191,"14wn5Hs9h1","Amp-Size-Speed-2","Amp-Hum-H","Amp-Hum-L","Brightness-Circles-H","Brightness-Circles-L",0
81,82,3790,"14wn5Hs9h1","Amp-Size-Speed-2","Noise-Tone-H","Noise-Tone-L","Speed-SP4-L","Speed-SP4-H",1
82,83,3571,"14wn5Hs9h1","Amp-Size-Speed-2","Size-Squares-L","Size-Squares-H","Pitch-Piano-H","Pitch-Piano-L",1
83,84,2968,"14wn5Hs9h1","Amp-Size-Speed-2","Speed-SP1-L","Speed-SP1-H","Size-Circles-L","Size-Circles-H",1
84,85,3641,"14wn5Hs9h1","Amp-Size-Speed-2","Pitch-Piano-H","Pitch-Piano-L","Size-Circles-L","Size-Circles-H",1
85,86,2112,"14wn5Hs9h1","Amp-Size-Speed-2","Color-RB-L","Color-RB-H","Size-Triangles-L","Size-Triangles-H",1
86,87,5362,"14wn5Hs9h1","Amp-Size-Speed-2","Amp-Hum-L","Amp-Hum-H","Color-RB-H","Color-RB-L",1
87,88,3112,"14wn5Hs9h1","Amp-Size-Speed-2","Color-RB-L","Color-RB-H","Speed-SP4-L","Speed-SP4-H",0
88,89,4725,"14wn5Hs9h1","Amp-Size-Speed-2","Brightness-Circles-L","Brightness-Circles-H","Amp-Tone-H","Amp-Tone-L",1
89,90,2640,"14wn5Hs9h1","Amp-Size-Speed-2","Size-Squares-H","Size-Squares-L","Affect-SC-L","Affect-SC-H",0
90,91,3125,"14wn5Hs9h1","Amp-Size-Speed-2","Size-Diamonds-L","Size-Diamonds-H","Color-RB-L","Color-RB-H",1
91,92,5501,"14wn5Hs9h1","Amp-Size-Speed-2","Amp-Pulse-L","Amp-Pulse-H","Pitch-Piano-H","Pitch-Piano-L",0
92,93,3203,"14wn5Hs9h1","Amp-Size-Speed-2","Shape-BK2-H","Shape-BK2-L","Size-Circles-H","Size-Circles-L",1
93,94,3809,"14wn5Hs9h1","Amp-Size-Speed-2","Amp-Pulse-H","Amp-Pulse-L","Affect-SC-L","Affect-SC-H",1
94,95,4219,"14wn5Hs9h1","Amp-Size-Speed-2","Size-Diamonds-L","Size-Diamonds-H","Amp-Pulse-H","Amp-Pulse-L",0
95,96,3865,"14wn5Hs9h1","Amp-Size-Speed-2","Amp-Hum-L","Amp-Hum-H","Size-Squares-H","Size-Squares-L",0
0,1,5869,"1jiyCkU8Xd","Pitch-Shape-Affect-12","Pitch-Hum-L","Pitch-Hum-H","Affect-PD-L","Affect-PD-H",1
1,2,4900,"1jiyCkU8Xd","Pitch-Shape-Affect-12","Pitch-Hum-L","Pitch-Hum-H","Size-Triangles-H","Size-Triangles-L",0
2,3,4684,"1jiyCkU8Xd","Pitch-Shape-Affect-12","Shape-BK2-L","Shape-BK2-H","Color-YB-L","Color-YB-H",1
3,4,5396,"1jiyCkU8Xd","Pitch-Shape-Affect-12","Shape-BK3-H","Shape-BK3-L","Size-Triangles-H","Size-Triangles-L",0
4,5,3781,"1jiyCkU8Xd","Pitch-Shape-Affect-12","Affect-EB-H","Affect-EB-L","Shape-BK1-L","Shape-BK1-H",0
5,6,3390,"1jiyCkU8Xd","Pitch-Shape-Affect-12","Brightness-Triangles-L","Brightness-Triangles-H","Affect-PD-H","Affect-PD-L",1
6,7,7849,"1jiyCkU8Xd","Pitch-Shape-Affect-12","Affect-EB-H","Affect-EB-L","Shape-BK4-L","Shape-BK4-H",0
7,8,3379,"1jiyCkU8Xd","Pitch-Shape-Affect-12","Brightness-Triangles-H","Brightness-Triangles-L","Pitch-Pulse-L","Pitch-Pulse-H",0
8,9,6346,"1jiyCkU8Xd","Pitch-Shape-Affect-12","Amp-Piano-L","Amp-Piano-H","Pitch-Pulse-L","Pitch-Pulse-H",1
9,10,6723,"1jiyCkU8Xd","Pitch-Shape-Affect-12","Noise-Pulse-L","Noise-Pulse-H","Affect-SC-H","Affect-SC-L",1
10,11,6213,"1jiyCkU8Xd","Pitch-Shape-Affect-12","Affect-EB-H","Affect-EB-L","Amp-Piano-H","Amp-Piano-L",0
11,12,33390,"1jiyCkU8Xd","Pitch-Shape-Affect-12","Pitch-Tone-L","Pitch-Tone-H","Speed-SP2-H","Speed-SP2-L",1
12,13,6299,"1jiyCkU8Xd","Pitch-Shape-Affect-12","Noise-Pulse-L","Noise-Pulse-H","Pitch-Pulse-H","Pitch-Pulse-L",1
13,14,3806,"1jiyCkU8Xd","Pitch-Shape-Affect-12","Shape-BK2-L","Shape-BK2-H","Size-Triangles-H","Size-Triangles-L",1
14,15,3526,"1jiyCkU8Xd","Pitch-Shape-Affect-12","Amp-Piano-L","Amp-Piano-H","Shape-BK1-H","Shape-BK1-L",1
15,16,4716,"1jiyCkU8Xd","Pitch-Shape-Affect-12","Affect-HS-L","Affect-HS-H","Amp-Piano-H","Amp-Piano-L",1
16,17,3677,"1jiyCkU8Xd","Pitch-Shape-Affect-12","Affect-EB-H","Affect-EB-L","Speed-SP2-H","Speed-SP2-L",0
17,18,4840,"1jiyCkU8Xd","Pitch-Shape-Affect-12","Pitch-Hum-L","Pitch-Hum-H","Affect-EB-H","Affect-EB-L",0
18,19,3647,"1jiyCkU8Xd","Pitch-Shape-Affect-12","Shape-BK2-H","Shape-BK2-L","Speed-SP2-L","Speed-SP2-H",1
19,20,5019,"1jiyCkU8Xd","Pitch-Shape-Affect-12","Amp-Piano-H","Amp-Piano-L","Affect-PD-H","Affect-PD-L",0
20,21,3732,"1jiyCkU8Xd","Pitch-Shape-Affect-12","Noise-Pulse-H","Noise-Pulse-L","Shape-BK4-H","Shape-BK4-L",0
21,22,4476,"1jiyCkU8Xd","Pitch-Shape-Affect-12","Shape-BK3-H","Shape-BK3-L","Amp-Piano-L","Amp-Piano-H",1
22,23,5438,"1jiyCkU8Xd","Pitch-Shape-Affect-12","Affect-EB-L","Affect-EB-H","Noise-Pulse-L","Noise-Pulse-H",1
23,24,5692,"1jiyCkU8Xd","Pitch-Shape-Affect-12","Pitch-Tone-H","Pitch-Tone-L","Color-YB-H","Color-YB-L",0
24,25,4996,"1jiyCkU8Xd","Pitch-Shape-Affect-12","Noise-Pulse-H","Noise-Pulse-L","Shape-BK1-L","Shape-BK1-H",0
25,26,2681,"1jiyCkU8Xd","Pitch-Shape-Affect-12","Affect-EB-H","Affect-EB-L","Shape-BK1-H","Shape-BK1-L",0
26,27,3574,"1jiyCkU8Xd","Pitch-Shape-Affect-12","Size-Triangles-L","Size-Triangles-H","Affect-PD-L","Affect-PD-H",0
27,28,2594,"1jiyCkU8Xd","Pitch-Shape-Affect-12","Brightness-Triangles-H","Brightness-Triangles-L","Affect-SC-L","Affect-SC-H",1
28,29,3827,"1jiyCkU8Xd","Pitch-Shape-Affect-12","Pitch-Hum-L","Pitch-Hum-H","Color-YB-L","Color-YB-H",1
29,30,3263,"1jiyCkU8Xd","Pitch-Shape-Affect-12","Speed-SP2-L","Speed-SP2-H","Shape-BK1-L","Shape-BK1-H",0
30,31,3349,"1jiyCkU8Xd","Pitch-Shape-Affect-12","Affect-HS-H","Affect-HS-L","Size-Triangles-L","Size-Triangles-H",1
31,32,3634,"1jiyCkU8Xd","Pitch-Shape-Affect-12","Pitch-Hum-H","Pitch-Hum-L","Shape-BK4-H","Shape-BK4-L",1
32,33,3388,"1jiyCkU8Xd","Pitch-Shape-Affect-12","Color-YB-L","Color-YB-H","Affect-PD-L","Affect-PD-H",0
33,34,4443,"1jiyCkU8Xd","Pitch-Shape-Affect-12","Shape-BK2-L","Shape-BK2-H","Affect-EB-H","Affect-EB-L",1
34,35,5138,"1jiyCkU8Xd","Pitch-Shape-Affect-12","Shape-BK3-L","Shape-BK3-H","Noise-Pulse-L","Noise-Pulse-H",1
35,36,3525,"1jiyCkU8Xd","Pitch-Shape-Affect-12","Affect-HS-H","Affect-HS-L","Color-YB-H","Color-YB-L",0
36,37,6285,"1jiyCkU8Xd","Pitch-Shape-Affect-12","Pitch-Tone-H","Pitch-Tone-L","Affect-EB-L","Affect-EB-H",1
37,38,4394,"1jiyCkU8Xd","Pitch-Shape-Affect-12","Affect-EB-L","Affect-EB-H","Pitch-Piano-L","Pitch-Piano-H",1
38,39,2931,"1jiyCkU8Xd","Pitch-Shape-Affect-12","Color-YB-H","Color-YB-L","Shape-BK1-H","Shape-BK1-L",0
39,40,4949,"1jiyCkU8Xd","Pitch-Shape-Affect-12","Brightness-Triangles-L","Brightness-Triangles-H","Shape-BK1-L","Shape-BK1-H",0
40,41,2777,"1jiyCkU8Xd","Pitch-Shape-Affect-12","Brightness-Triangles-H","Brightness-Triangles-L","Shape-BK4-H","Shape-BK4-L",0
41,42,3892,"1jiyCkU8Xd","Pitch-Shape-Affect-12","Pitch-Tone-L","Pitch-Tone-H","Brightness-Triangles-L","Brightness-Triangles-H",0
42,43,4728,"1jiyCkU8Xd","Pitch-Shape-Affect-12","Pitch-Tone-L","Pitch-Tone-H","Amp-Piano-L","Amp-Piano-H",0
43,44,3151,"1jiyCkU8Xd","Pitch-Shape-Affect-12","Speed-SP2-L","Speed-SP2-H","Shape-BK4-H","Shape-BK4-L",1
44,45,3099,"1jiyCkU8Xd","Pitch-Shape-Affect-12","Shape-BK1-H","Shape-BK1-L","Affect-SC-L","Affect-SC-H",1
45,46,2684,"1jiyCkU8Xd","Pitch-Shape-Affect-12","Affect-EB-L","Affect-EB-H","Color-YB-L","Color-YB-H",0
46,47,4209,"1jiyCkU8Xd","Pitch-Shape-Affect-12","Noise-Pulse-H","Noise-Pulse-L","Affect-PD-L","Affect-PD-H",0
47,48,5197,"1jiyCkU8Xd","Pitch-Shape-Affect-12","Affect-EB-H","Affect-EB-L","Brightness-Triangles-H","Brightness-Triangles-L",0
48,49,3964,"1jiyCkU8Xd","Pitch-Shape-Affect-12","Speed-SP2-H","Speed-SP2-L","Pitch-Pulse-L","Pitch-Pulse-H",0
49,50,6932,"1jiyCkU8Xd","Pitch-Shape-Affect-12","Pitch-Hum-H","Pitch-Hum-L","Amp-Piano-L","Amp-Piano-H",0
50,51,5571,"1jiyCkU8Xd","Pitch-Shape-Affect-12","Affect-EB-L","Affect-EB-H","Pitch-Hum-L","Pitch-Hum-H",1
51,52,4411,"1jiyCkU8Xd","Pitch-Shape-Affect-12","Shape-BK2-L","Shape-BK2-H","Amp-Piano-H","Amp-Piano-L",1
52,53,7874,"1jiyCkU8Xd","Pitch-Shape-Affect-12","Affect-HS-H","Affect-HS-L","Noise-Pulse-L","Noise-Pulse-H",0
53,54,3083,"1jiyCkU8Xd","Pitch-Shape-Affect-12","Shape-BK3-L","Shape-BK3-H","Speed-SP2-H","Speed-SP2-L",1
54,55,5313,"1jiyCkU8Xd","Pitch-Shape-Affect-12","Shape-BK1-H","Shape-BK1-L","Pitch-Pulse-L","Pitch-Pulse-H",0
55,56,2672,"1jiyCkU8Xd","Pitch-Shape-Affect-12","Size-Triangles-L","Size-Triangles-H","Shape-BK4-L","Shape-BK4-H",0
56,57,4390,"1jiyCkU8Xd","Pitch-Shape-Affect-12","Speed-SP2-L","Speed-SP2-H","Pitch-Piano-H","Pitch-Piano-L",0
57,58,4527,"1jiyCkU8Xd","Pitch-Shape-Affect-12","Shape-BK1-L","Shape-BK1-H","Affect-PD-H","Affect-PD-L",0
58,59,3735,"1jiyCkU8Xd","Pitch-Shape-Affect-12","Shape-BK2-H","Shape-BK2-L","Brightness-Triangles-L","Brightness-Triangles-H",1
59,60,3095,"1jiyCkU8Xd","Pitch-Shape-Affect-12","Affect-HS-L","Affect-HS-H","Speed-SP2-L","Speed-SP2-H",0
60,61,5074,"1jiyCkU8Xd","Pitch-Shape-Affect-12","Color-YB-L","Color-YB-H","Pitch-Piano-L","Pitch-Piano-H",1
61,62,4970,"1jiyCkU8Xd","Pitch-Shape-Affect-12","Pitch-Hum-H","Pitch-Hum-L","Brightness-Triangles-H","Brightness-Triangles-L",1
62,63,3515,"1jiyCkU8Xd","Pitch-Shape-Affect-12","Affect-HS-H","Affect-HS-L","Pitch-Hum-L","Pitch-Hum-H",0
63,64,3502,"1jiyCkU8Xd","Pitch-Shape-Affect-12","Shape-BK2-H","Shape-BK2-L","Noise-Pulse-H","Noise-Pulse-L",1
64,65,4971,"1jiyCkU8Xd","Pitch-Shape-Affect-12","Affect-HS-L","Affect-HS-H","Shape-BK1-H","Shape-BK1-L",1
65,66,4173,"1jiyCkU8Xd","Pitch-Shape-Affect-12","Amp-Piano-L","Amp-Piano-H","Affect-SC-L","Affect-SC-H",0
66,67,4775,"1jiyCkU8Xd","Pitch-Shape-Affect-12","Size-Triangles-L","Size-Triangles-H","Pitch-Piano-L","Pitch-Piano-H",1
67,68,3912,"1jiyCkU8Xd","Pitch-Shape-Affect-12","Pitch-Hum-H","Pitch-Hum-L","Shape-BK1-L","Shape-BK1-H",0
68,69,3162,"1jiyCkU8Xd","Pitch-Shape-Affect-12","Shape-BK3-H","Shape-BK3-L","Color-YB-H","Color-YB-L",0
69,70,3589,"1jiyCkU8Xd","Pitch-Shape-Affect-12","Brightness-Triangles-L","Brightness-Triangles-H","Pitch-Piano-H","Pitch-Piano-L",0
70,71,3063,"1jiyCkU8Xd","Pitch-Shape-Affect-12","Affect-HS-L","Affect-HS-H","Brightness-Triangles-L","Brightness-Triangles-H",0
71,72,3435,"1jiyCkU8Xd","Pitch-Shape-Affect-12","Color-YB-L","Color-YB-H","Affect-SC-H","Affect-SC-L",1
72,73,5728,"1jiyCkU8Xd","Pitch-Shape-Affect-12","Pitch-Hum-L","Pitch-Hum-H","Noise-Pulse-H","Noise-Pulse-L",0
73,74,34263,"1jiyCkU8Xd","Pitch-Shape-Affect-12","Pitch-Tone-H","Pitch-Tone-L","Size-Triangles-L","Size-Triangles-H",1
74,75,4679,"1jiyCkU8Xd","Pitch-Shape-Affect-12","Shape-BK1-L","Shape-BK1-H","Pitch-Piano-H","Pitch-Piano-L",0
75,76,3187,"1jiyCkU8Xd","Pitch-Shape-Affect-12","Color-YB-L","Color-YB-H","Pitch-Pulse-H","Pitch-Pulse-L",0
76,77,4048,"1jiyCkU8Xd","Pitch-Shape-Affect-12","Pitch-Hum-H","Pitch-Hum-L","Shape-BK1-L","Shape-BK1-H",0
77,78,3903,"1jiyCkU8Xd","Pitch-Shape-Affect-12","Amp-Piano-L","Amp-Piano-H","Shape-BK4-L","Shape-BK4-H",0
78,79,4734,"1jiyCkU8Xd","Pitch-Shape-Affect-12","Size-Triangles-H","Size-Triangles-L","Pitch-Pulse-H","Pitch-Pulse-L",1
79,80,5868,"1jiyCkU8Xd","Pitch-Shape-Affect-12","Shape-BK2-H","Shape-BK2-L","Pitch-Hum-L","Pitch-Hum-H",0
80,81,5201,"1jiyCkU8Xd","Pitch-Shape-Affect-12","Speed-SP2-L","Speed-SP2-H","Affect-PD-H","Affect-PD-L",0
81,82,3939,"1jiyCkU8Xd","Pitch-Shape-Affect-12","Affect-EB-L","Affect-EB-H","Size-Triangles-H","Size-Triangles-L",1
82,83,5478,"1jiyCkU8Xd","Pitch-Shape-Affect-12","Pitch-Tone-H","Pitch-Tone-L","Noise-Pulse-H","Noise-Pulse-L",1
83,84,5716,"1jiyCkU8Xd","Pitch-Shape-Affect-12","Shape-BK3-L","Shape-BK3-H","Brightness-Triangles-L","Brightness-Triangles-H",0
84,85,4352,"1jiyCkU8Xd","Pitch-Shape-Affect-12","Pitch-Hum-H","Pitch-Hum-L","Affect-SC-H","Affect-SC-L",1
85,86,3900,"1jiyCkU8Xd","Pitch-Shape-Affect-12","Pitch-Tone-L","Pitch-Tone-H","Shape-BK1-H","Shape-BK1-L",1
86,87,3020,"1jiyCkU8Xd","Pitch-Shape-Affect-12","Color-YB-H","Color-YB-L","Shape-BK4-L","Shape-BK4-H",1
87,88,3495,"1jiyCkU8Xd","Pitch-Shape-Affect-12","Size-Triangles-H","Size-Triangles-L","Affect-SC-H","Affect-SC-L",0
88,89,7244,"1jiyCkU8Xd","Pitch-Shape-Affect-12","Noise-Pulse-H","Noise-Pulse-L","Pitch-Piano-L","Pitch-Piano-H",1
89,90,5343,"1jiyCkU8Xd","Pitch-Shape-Affect-12","Shape-BK3-H","Shape-BK3-L","Affect-EB-L","Affect-EB-H",1
90,91,5531,"1jiyCkU8Xd","Pitch-Shape-Affect-12","Pitch-Hum-H","Pitch-Hum-L","Speed-SP2-H","Speed-SP2-L",1
91,92,4804,"1jiyCkU8Xd","Pitch-Shape-Affect-12","Affect-EB-H","Affect-EB-L","Pitch-Pulse-H","Pitch-Pulse-L",1
92,93,5096,"1jiyCkU8Xd","Pitch-Shape-Affect-12","Amp-Piano-H","Amp-Piano-L","Pitch-Piano-H","Pitch-Piano-L",0
93,94,3495,"1jiyCkU8Xd","Pitch-Shape-Affect-12","Size-Triangles-H","Size-Triangles-L","Shape-BK1-H","Shape-BK1-L",0
94,95,3316,"1jiyCkU8Xd","Pitch-Shape-Affect-12","Shape-BK3-L","Shape-BK3-H","Pitch-Hum-H","Pitch-Hum-L",0
95,96,17657,"1jiyCkU8Xd","Pitch-Shape-Affect-12","Speed-SP2-H","Speed-SP2-L","Affect-SC-L","Affect-SC-H",1
0,1,11845,"1oqfO3Hr5o","Brightness-Amp-Affect-4","Speed-SP2-L","Speed-SP2-H","Amp-Piano-L","Amp-Piano-H",0
1,2,3164,"1oqfO3Hr5o","Brightness-Amp-Affect-4","Size-Triangles-H","Size-Triangles-L","Brightness-Circles-H","Brightness-Circles-L",0
2,3,2715,"1oqfO3Hr5o","Brightness-Amp-Affect-4","Affect-SC-L","Affect-SC-H","Color-RB-H","Color-RB-L",1
3,4,3370,"1oqfO3Hr5o","Brightness-Amp-Affect-4","Affect-EB-H","Affect-EB-L","Shape-BK2-L","Shape-BK2-H",0
4,5,3995,"1oqfO3Hr5o","Brightness-Amp-Affect-4","Pitch-Piano-L","Pitch-Piano-H","Affect-HS-H","Affect-HS-L",0
5,6,5091,"1oqfO3Hr5o","Brightness-Amp-Affect-4","Amp-Pulse-H","Amp-Pulse-L","Affect-PD-H","Affect-PD-L",1
6,7,4146,"1oqfO3Hr5o","Brightness-Amp-Affect-4","Shape-BK2-H","Shape-BK2-L","Affect-PD-H","Affect-PD-L",1
7,8,4191,"1oqfO3Hr5o","Brightness-Amp-Affect-4","Speed-SP2-H","Speed-SP2-L","Affect-PD-H","Affect-PD-L",0
8,9,4107,"1oqfO3Hr5o","Brightness-Amp-Affect-4","Brightness-Triangles-H","Brightness-Triangles-L","Color-RB-L","Color-RB-H",1
9,10,4310,"1oqfO3Hr5o","Brightness-Amp-Affect-4","Amp-Pulse-H","Amp-Pulse-L","Size-Triangles-H","Size-Triangles-L",0
10,11,2902,"1oqfO3Hr5o","Brightness-Amp-Affect-4","Affect-PD-H","Affect-PD-L","Brightness-Diamonds-H","Brightness-Diamonds-L",0
11,12,4279,"1oqfO3Hr5o","Brightness-Amp-Affect-4","Size-Triangles-H","Size-Triangles-L","Amp-Piano-H","Amp-Piano-L",0
12,13,4995,"1oqfO3Hr5o","Brightness-Amp-Affect-4","Noise-Piano-H","Noise-Piano-L","Brightness-Circles-H","Brightness-Circles-L",0
13,14,3355,"1oqfO3Hr5o","Brightness-Amp-Affect-4","Brightness-Squares-L","Brightness-Squares-H","Speed-SP2-H","Speed-SP2-L",1
14,15,4904,"1oqfO3Hr5o","Brightness-Amp-Affect-4","Amp-Pulse-H","Amp-Pulse-L","Affect-PD-L","Affect-PD-H",0
15,16,6379,"1oqfO3Hr5o","Brightness-Amp-Affect-4","Speed-SP2-H","Speed-SP2-L","Brightness-Circles-H","Brightness-Circles-L",0
16,17,8316,"1oqfO3Hr5o","Brightness-Amp-Affect-4","Noise-Piano-H","Noise-Piano-L","Amp-Piano-H","Amp-Piano-L",1
17,18,2925,"1oqfO3Hr5o","Brightness-Amp-Affect-4","Color-RB-L","Color-RB-H","Affect-HS-H","Affect-HS-L",1
18,19,4568,"1oqfO3Hr5o","Brightness-Amp-Affect-4","Amp-Hum-L","Amp-Hum-H","Speed-SP2-L","Speed-SP2-H",0
19,20,4561,"1oqfO3Hr5o","Brightness-Amp-Affect-4","Affect-PD-H","Affect-PD-L","Amp-Piano-H","Amp-Piano-L",0
20,21,4412,"1oqfO3Hr5o","Brightness-Amp-Affect-4","Noise-Piano-L","Noise-Piano-H","Affect-PD-L","Affect-PD-H",1
21,22,4520,"1oqfO3Hr5o","Brightness-Amp-Affect-4","Color-RB-H","Color-RB-L","Brightness-Circles-L","Brightness-Circles-H",1
22,23,3278,"1oqfO3Hr5o","Brightness-Amp-Affect-4","Pitch-Piano-H","Pitch-Piano-L","Brightness-Diamonds-L","Brightness-Diamonds-H",1
23,24,4613,"1oqfO3Hr5o","Brightness-Amp-Affect-4","Amp-Hum-H","Amp-Hum-L","Size-Triangles-L","Size-Triangles-H",1
24,25,3079,"1oqfO3Hr5o","Brightness-Amp-Affect-4","Brightness-Circles-L","Brightness-Circles-H","Affect-PD-H","Affect-PD-L",1
25,26,2273,"1oqfO3Hr5o","Brightness-Amp-Affect-4","Shape-BK2-L","Shape-BK2-H","Brightness-Circles-L","Brightness-Circles-H",1
26,27,4454,"1oqfO3Hr5o","Brightness-Amp-Affect-4","Amp-Pulse-L","Amp-Pulse-H","Speed-SP2-L","Speed-SP2-H",0
27,28,8234,"1oqfO3Hr5o","Brightness-Amp-Affect-4","Pitch-Piano-L","Pitch-Piano-H","Affect-PD-L","Affect-PD-H",1
28,29,4573,"1oqfO3Hr5o","Brightness-Amp-Affect-4","Affect-SC-H","Affect-SC-L","Amp-Pulse-L","Amp-Pulse-H",1
29,30,2987,"1oqfO3Hr5o","Brightness-Amp-Affect-4","Brightness-Squares-H","Brightness-Squares-L","Affect-PD-H","Affect-PD-L",0
30,31,6979,"1oqfO3Hr5o","Brightness-Amp-Affect-4","Size-Triangles-L","Size-Triangles-H","Amp-Tone-L","Amp-Tone-H",0
31,32,3936,"1oqfO3Hr5o","Brightness-Amp-Affect-4","Amp-Hum-H","Amp-Hum-L","Color-RB-H","Color-RB-L",0
32,33,2219,"1oqfO3Hr5o","Brightness-Amp-Affect-4","Shape-BK2-L","Shape-BK2-H","Brightness-Diamonds-H","Brightness-Diamonds-L",0
33,34,5229,"1oqfO3Hr5o","Brightness-Amp-Affect-4","Pitch-Piano-L","Pitch-Piano-H","Amp-Piano-L","Amp-Piano-H",1
34,35,2264,"1oqfO3Hr5o","Brightness-Amp-Affect-4","Affect-PD-L","Affect-PD-H","Brightness-Circles-L","Brightness-Circles-H",0
35,36,4520,"1oqfO3Hr5o","Brightness-Amp-Affect-4","Affect-EB-H","Affect-EB-L","Amp-Pulse-L","Amp-Pulse-H",1
36,37,3840,"1oqfO3Hr5o","Brightness-Amp-Affect-4","Amp-Pulse-L","Amp-Pulse-H","Brightness-Circles-H","Brightness-Circles-L",0
37,38,7478,"1oqfO3Hr5o","Brightness-Amp-Affect-4","Noise-Piano-L","Noise-Piano-H","Affect-HS-H","Affect-HS-L",1
38,39,4178,"1oqfO3Hr5o","Brightness-Amp-Affect-4","Shape-BK2-L","Shape-BK2-H","Amp-Tone-H","Amp-Tone-L",1
39,40,4480,"1oqfO3Hr5o","Brightness-Amp-Affect-4","Affect-EB-L","Affect-EB-H","Pitch-Piano-H","Pitch-Piano-L",1
40,41,5854,"1oqfO3Hr5o","Brightness-Amp-Affect-4","Amp-Hum-H","Amp-Hum-L","Noise-Piano-L","Noise-Piano-H",1
41,42,3607,"1oqfO3Hr5o","Brightness-Amp-Affect-4","Brightness-Squares-H","Brightness-Squares-L","Amp-Pulse-L","Amp-Pulse-H",1
42,43,3428,"1oqfO3Hr5o","Brightness-Amp-Affect-4","Brightness-Squares-L","Brightness-Squares-H","Pitch-Piano-H","Pitch-Piano-L",1
43,44,3932,"1oqfO3Hr5o","Brightness-Amp-Affect-4","Speed-SP2-H","Speed-SP2-L","Affect-HS-L","Affect-HS-H",1
44,45,4262,"1oqfO3Hr5o","Brightness-Amp-Affect-4","Shape-BK2-L","Shape-BK2-H","Amp-Piano-L","Amp-Piano-H",0
45,46,2957,"1oqfO3Hr5o","Brightness-Amp-Affect-4","Affect-EB-H","Affect-EB-L","Speed-SP2-L","Speed-SP2-H",0
46,47,2356,"1oqfO3Hr5o","Brightness-Amp-Affect-4","Affect-SC-L","Affect-SC-H","Size-Triangles-L","Size-Triangles-H",0
47,48,2777,"1oqfO3Hr5o","Brightness-Amp-Affect-4","Shape-BK2-L","Shape-BK2-H","Affect-HS-L","Affect-HS-H",1
48,49,2344,"1oqfO3Hr5o","Brightness-Amp-Affect-4","Brightness-Triangles-H","Brightness-Triangles-L","Affect-PD-L","Affect-PD-H",0
49,50,4682,"1oqfO3Hr5o","Brightness-Amp-Affect-4","Brightness-Circles-L","Brightness-Circles-H","Amp-Piano-L","Amp-Piano-H",0
50,51,2503,"1oqfO3Hr5o","Brightness-Amp-Affect-4","Brightness-Triangles-H","Brightness-Triangles-L","Shape-BK2-L","Shape-BK2-H",1
51,52,5304,"1oqfO3Hr5o","Brightness-Amp-Affect-4","Pitch-Piano-H","Pitch-Piano-L","Amp-Tone-H","Amp-Tone-L",1
52,53,1997,"1oqfO3Hr5o","Brightness-Amp-Affect-4","Brightness-Squares-H","Brightness-Squares-L","Color-RB-L","Color-RB-H",1
53,54,3367,"1oqfO3Hr5o","Brightness-Amp-Affect-4","Affect-PD-H","Affect-PD-L","Amp-Tone-L","Amp-Tone-H",0
54,55,6703,"1oqfO3Hr5o","Brightness-Amp-Affect-4","Amp-Pulse-L","Amp-Pulse-H","Pitch-Piano-L","Pitch-Piano-H",1
55,56,2150,"1oqfO3Hr5o","Brightness-Amp-Affect-4","Affect-SC-H","Affect-SC-L","Shape-BK2-L","Shape-BK2-H",1
56,57,3679,"1oqfO3Hr5o","Brightness-Amp-Affect-4","Color-RB-H","Color-RB-L","Amp-Tone-L","Amp-Tone-H",0
57,58,5078,"1oqfO3Hr5o","Brightness-Amp-Affect-4","Amp-Hum-L","Amp-Hum-H","Pitch-Piano-H","Pitch-Piano-L",0
58,59,3755,"1oqfO3Hr5o","Brightness-Amp-Affect-4","Brightness-Triangles-H","Brightness-Triangles-L","Amp-Pulse-H","Amp-Pulse-L",1
59,60,4584,"1oqfO3Hr5o","Brightness-Amp-Affect-4","Noise-Piano-H","Noise-Piano-L","Amp-Tone-L","Amp-Tone-H",0
60,61,3961,"1oqfO3Hr5o","Brightness-Amp-Affect-4","Brightness-Circles-H","Brightness-Circles-L","Amp-Tone-H","Amp-Tone-L",1
61,62,3740,"1oqfO3Hr5o","Brightness-Amp-Affect-4","Brightness-Triangles-L","Brightness-Triangles-H","Speed-SP2-H","Speed-SP2-L",1
62,63,3831,"1oqfO3Hr5o","Brightness-Amp-Affect-4","Amp-Hum-L","Amp-Hum-H","Brightness-Circles-H","Brightness-Circles-L",0
63,64,4822,"1oqfO3Hr5o","Brightness-Amp-Affect-4","Affect-EB-L","Affect-EB-H","Noise-Piano-L","Noise-Piano-H",1
64,65,2435,"1oqfO3Hr5o","Brightness-Amp-Affect-4","Affect-SC-H","Affect-SC-L","Speed-SP2-L","Speed-SP2-H",0
65,66,4154,"1oqfO3Hr5o","Brightness-Amp-Affect-4","Affect-SC-L","Affect-SC-H","Noise-Piano-H","Noise-Piano-L",0
66,67,9198,"1oqfO3Hr5o","Brightness-Amp-Affect-4","Pitch-Piano-L","Pitch-Piano-H","Brightness-Circles-H","Brightness-Circles-L",0
67,68,3118,"1oqfO3Hr5o","Brightness-Amp-Affect-4","Brightness-Squares-H","Brightness-Squares-L","Shape-BK2-H","Shape-BK2-L",0
68,69,4030,"1oqfO3Hr5o","Brightness-Amp-Affect-4","Amp-Pulse-L","Amp-Pulse-H","Brightness-Circles-L","Brightness-Circles-H",0
69,70,4105,"1oqfO3Hr5o","Brightness-Amp-Affect-4","Brightness-Circles-L","Brightness-Circles-H","Affect-HS-L","Affect-HS-H",0
70,71,3180,"1oqfO3Hr5o","Brightness-Amp-Affect-4","Affect-SC-H","Affect-SC-L","Brightness-Circles-L","Brightness-Circles-H",1
71,72,1960,"1oqfO3Hr5o","Brightness-Amp-Affect-4","Affect-EB-H","Affect-EB-L","Brightness-Circles-L","Brightness-Circles-H",1
72,73,44077,"1oqfO3Hr5o","Brightness-Amp-Affect-4","Speed-SP2-H","Speed-SP2-L","Brightness-Diamonds-L","Brightness-Diamonds-H",1
73,74,2138,"1oqfO3Hr5o","Brightness-Amp-Affect-4","Brightness-Squares-L","Brightness-Squares-H","Size-Triangles-H","Size-Triangles-L",0
74,75,2523,"1oqfO3Hr5o","Brightness-Amp-Affect-4","Affect-EB-L","Affect-EB-H","Color-RB-H","Color-RB-L",1
75,76,16717,"1oqfO3Hr5o","Brightness-Amp-Affect-4","Amp-Hum-L","Amp-Hum-H","Shape-BK2-H","Shape-BK2-L",1
76,77,3821,"1oqfO3Hr5o","Brightness-Amp-Affect-4","Amp-Pulse-L","Amp-Pulse-H","Affect-HS-L","Affect-HS-H",1
77,78,3060,"1oqfO3Hr5o","Brightness-Amp-Affect-4","Amp-Pulse-H","Amp-Pulse-L","Color-RB-H","Color-RB-L",0
78,79,4203,"1oqfO3Hr5o","Brightness-Amp-Affect-4","Affect-SC-L","Affect-SC-H","Pitch-Piano-H","Pitch-Piano-L",1
79,80,3316,"1oqfO3Hr5o","Brightness-Amp-Affect-4","Size-Triangles-L","Size-Triangles-H","Affect-PD-L","Affect-PD-H",0
80,81,2210,"1oqfO3Hr5o","Brightness-Amp-Affect-4","Affect-EB-L","Affect-EB-H","Size-Triangles-H","Size-Triangles-L",1
81,82,2070,"1oqfO3Hr5o","Brightness-Amp-Affect-4","Size-Triangles-H","Size-Triangles-L","Affect-HS-H","Affect-HS-L",0
82,83,3892,"1oqfO3Hr5o","Brightness-Amp-Affect-4","Amp-Pulse-L","Amp-Pulse-H","Shape-BK2-H","Shape-BK2-L",1
83,84,4215,"1oqfO3Hr5o","Brightness-Amp-Affect-4","Brightness-Triangles-L","Brightness-Triangles-H","Noise-Piano-H","Noise-Piano-L",1
84,85,14502,"1oqfO3Hr5o","Brightness-Amp-Affect-4","Amp-Hum-H","Amp-Hum-L","Affect-PD-H","Affect-PD-L",0
85,86,6076,"1oqfO3Hr5o","Brightness-Amp-Affect-4","Amp-Pulse-H","Amp-Pulse-L","Noise-Piano-L","Noise-Piano-H",1
86,87,2272,"1oqfO3Hr5o","Brightness-Amp-Affect-4","Color-RB-L","Color-RB-H","Affect-PD-L","Affect-PD-H",1
87,88,4099,"1oqfO3Hr5o","Brightness-Amp-Affect-4","Brightness-Triangles-L","Brightness-Triangles-H","Pitch-Piano-L","Pitch-Piano-H",1
88,89,3377,"1oqfO3Hr5o","Brightness-Amp-Affect-4","Brightness-Squares-L","Brightness-Squares-H","Noise-Piano-L","Noise-Piano-H",1
89,90,3417,"1oqfO3Hr5o","Brightness-Amp-Affect-4","Speed-SP2-H","Speed-SP2-L","Amp-Tone-H","Amp-Tone-L",1
90,91,3259,"1oqfO3Hr5o","Brightness-Amp-Affect-4","Color-RB-H","Color-RB-L","Amp-Piano-H","Amp-Piano-L",0
91,92,2546,"1oqfO3Hr5o","Brightness-Amp-Affect-4","Brightness-Triangles-L","Brightness-Triangles-H","Size-Triangles-H","Size-Triangles-L",1
92,93,3905,"1oqfO3Hr5o","Brightness-Amp-Affect-4","Noise-Piano-L","Noise-Piano-H","Brightness-Diamonds-L","Brightness-Diamonds-H",0
93,94,5120,"1oqfO3Hr5o","Brightness-Amp-Affect-4","Color-RB-H","Color-RB-L","Brightness-Diamonds-H","Brightness-Diamonds-L",0
94,95,2277,"1oqfO3Hr5o","Brightness-Amp-Affect-4","Size-Triangles-L","Size-Triangles-H","Brightness-Diamonds-L","Brightness-Diamonds-H",1
95,96,3681,"1oqfO3Hr5o","Brightness-Amp-Affect-4","Amp-Pulse-H","Amp-Pulse-L","Brightness-Diamonds-H","Brightness-Diamonds-L",1
0,1,10734,"2LjHMOdApU","Pitch-Size-Color-1","Affect-EB-L","Affect-EB-H","Color-RB-H","Color-RB-L",1
1,2,5834,"2LjHMOdApU","Pitch-Size-Color-1","Size-Squares-L","Size-Squares-H","Pitch-Pulse-L","Pitch-Pulse-H",1
2,3,7276,"2LjHMOdApU","Pitch-Size-Color-1","Brightness-Circles-H","Brightness-Circles-L","Pitch-Tone-L","Pitch-Tone-H",1
3,4,5177,"2LjHMOdApU","Pitch-Size-Color-1","Color-RY-L","Color-RY-H","Pitch-Pulse-L","Pitch-Pulse-H",1
4,5,5173,"2LjHMOdApU","Pitch-Size-Color-1","Size-Squares-L","Size-Squares-H","Brightness-Circles-H","Brightness-Circles-L",0
5,6,4037,"2LjHMOdApU","Pitch-Size-Color-1","Brightness-Circles-H","Brightness-Circles-L","Color-YB-H","Color-YB-L",0
6,7,5655,"2LjHMOdApU","Pitch-Size-Color-1","Pitch-Pulse-L","Pitch-Pulse-H","Brightness-Circles-H","Brightness-Circles-L",0
7,8,7498,"2LjHMOdApU","Pitch-Size-Color-1","Pitch-Pulse-H","Pitch-Pulse-L","Noise-Pulse-H","Noise-Pulse-L",0
8,9,5569,"2LjHMOdApU","Pitch-Size-Color-1","Color-RY-L","Color-RY-H","Noise-Pulse-L","Noise-Pulse-H",1
9,10,4631,"2LjHMOdApU","Pitch-Size-Color-1","Color-RB-L","Color-RB-H","Pitch-Tone-H","Pitch-Tone-L",0
10,11,8647,"2LjHMOdApU","Pitch-Size-Color-1","Pitch-Pulse-H","Pitch-Pulse-L","Affect-EB-H","Affect-EB-L",0
11,12,3870,"2LjHMOdApU","Pitch-Size-Color-1","Size-Triangles-H","Size-Triangles-L","Affect-EB-L","Affect-EB-H",0
12,13,5775,"2LjHMOdApU","Pitch-Size-Color-1","Color-RG-H","Color-RG-L","Affect-EB-H","Affect-EB-L",1
13,14,5303,"2LjHMOdApU","Pitch-Size-Color-1","Color-RG-L","Color-RG-H","Speed-SP1-L","Speed-SP1-H",0
14,15,2802,"2LjHMOdApU","Pitch-Size-Color-1","Brightness-Circles-H","Brightness-Circles-L","Size-Circles-L","Size-Circles-H",1
15,16,5683,"2LjHMOdApU","Pitch-Size-Color-1","Noise-Pulse-H","Noise-Pulse-L","Size-Diamonds-L","Size-Diamonds-H",1
16,17,83948,"2LjHMOdApU","Pitch-Size-Color-1","Shape-BK1-H","Shape-BK1-L","Size-Circles-H","Size-Circles-L",0
17,18,3242,"2LjHMOdApU","Pitch-Size-Color-1","Affect-EB-L","Affect-EB-H","Size-Circles-H","Size-Circles-L",1
18,19,3046,"2LjHMOdApU","Pitch-Size-Color-1","Size-Triangles-H","Size-Triangles-L","Color-RB-H","Color-RB-L",0
19,20,3012,"2LjHMOdApU","Pitch-Size-Color-1","Size-Triangles-L","Size-Triangles-H","Speed-SP1-L","Speed-SP1-H",1
20,21,9135,"2LjHMOdApU","Pitch-Size-Color-1","Pitch-Pulse-L","Pitch-Pulse-H","Speed-SP1-H","Speed-SP1-L",1
21,22,4010,"2LjHMOdApU","Pitch-Size-Color-1","Speed-SP1-L","Speed-SP1-H","Color-YB-L","Color-YB-H",1
22,23,4401,"2LjHMOdApU","Pitch-Size-Color-1","Size-Triangles-L","Size-Triangles-H","Noise-Pulse-H","Noise-Pulse-L",0
23,24,8971,"2LjHMOdApU","Pitch-Size-Color-1","Pitch-Hum-L","Pitch-Hum-H","Speed-SP1-L","Speed-SP1-H",0
24,25,9169,"2LjHMOdApU","Pitch-Size-Color-1","Affect-EB-H","Affect-EB-L","Pitch-Tone-H","Pitch-Tone-L",0
25,26,7313,"2LjHMOdApU","Pitch-Size-Color-1","Amp-Tone-L","Amp-Tone-H","Pitch-Piano-L","Pitch-Piano-H",1
26,27,4873,"2LjHMOdApU","Pitch-Size-Color-1","Size-Triangles-H","Size-Triangles-L","Pitch-Piano-H","Pitch-Piano-L",0
27,28,2622,"2LjHMOdApU","Pitch-Size-Color-1","Color-RY-H","Color-RY-L","Affect-EB-L","Affect-EB-H",0
28,29,5962,"2LjHMOdApU","Pitch-Size-Color-1","Size-Triangles-H","Size-Triangles-L","Pitch-Tone-H","Pitch-Tone-L",1
29,30,6246,"2LjHMOdApU","Pitch-Size-Color-1","Pitch-Pulse-L","Pitch-Pulse-H","Size-Diamonds-L","Size-Diamonds-H",1
30,31,4056,"2LjHMOdApU","Pitch-Size-Color-1","Speed-SP1-H","Speed-SP1-L","Size-Diamonds-L","Size-Diamonds-H",0
31,32,5572,"2LjHMOdApU","Pitch-Size-Color-1","Color-RY-H","Color-RY-L","Amp-Tone-H","Amp-Tone-L",0
32,33,6729,"2LjHMOdApU","Pitch-Size-Color-1","Color-RB-L","Color-RB-H","Pitch-Piano-H","Pitch-Piano-L",1
33,34,6796,"2LjHMOdApU","Pitch-Size-Color-1","Pitch-Hum-H","Pitch-Hum-L","Noise-Pulse-H","Noise-Pulse-L",1
34,35,5566,"2LjHMOdApU","Pitch-Size-Color-1","Amp-Tone-H","Amp-Tone-L","Color-YB-H","Color-YB-L",1
35,36,5160,"2LjHMOdApU","Pitch-Size-Color-1","Pitch-Hum-H","Pitch-Hum-L","Size-Triangles-H","Size-Triangles-L",1
36,37,5217,"2LjHMOdApU","Pitch-Size-Color-1","Amp-Tone-L","Amp-Tone-H","Color-RB-H","Color-RB-L",1
37,38,4203,"2LjHMOdApU","Pitch-Size-Color-1","Pitch-Hum-L","Pitch-Hum-H","Shape-BK1-L","Shape-BK1-H",1
38,39,2221,"2LjHMOdApU","Pitch-Size-Color-1","Size-Triangles-H","Size-Triangles-L","Shape-BK1-L","Shape-BK1-H",0
39,40,4330,"2LjHMOdApU","Pitch-Size-Color-1","Pitch-Pulse-H","Pitch-Pulse-L","Color-YB-L","Color-YB-H",0
40,41,5799,"2LjHMOdApU","Pitch-Size-Color-1","Size-Squares-H","Size-Squares-L","Amp-Tone-L","Amp-Tone-H",1
41,42,6808,"2LjHMOdApU","Pitch-Size-Color-1","Speed-SP1-H","Speed-SP1-L","Pitch-Tone-L","Pitch-Tone-H",1
42,43,9455,"2LjHMOdApU","Pitch-Size-Color-1","Pitch-Hum-H","Pitch-Hum-L","Color-RB-L","Color-RB-H",1
43,44,4543,"2LjHMOdApU","Pitch-Size-Color-1","Shape-BK1-L","Shape-BK1-H","Pitch-Tone-L","Pitch-Tone-H",0
44,45,24093,"2LjHMOdApU","Pitch-Size-Color-1","Size-Triangles-H","Size-Triangles-L","Amp-Tone-H","Amp-Tone-L",0
45,46,20483,"2LjHMOdApU","Pitch-Size-Color-1","Shape-BK1-H","Shape-BK1-L","Pitch-Piano-L","Pitch-Piano-H",1
46,47,9865,"2LjHMOdApU","Pitch-Size-Color-1","Pitch-Pulse-H","Pitch-Pulse-L","Color-RB-L","Color-RB-H",0
47,48,17121,"2LjHMOdApU","Pitch-Size-Color-1","Speed-SP1-H","Speed-SP1-L","Color-RB-L","Color-RB-H",0
48,49,3668,"2LjHMOdApU","Pitch-Size-Color-1","Size-Triangles-L","Size-Triangles-H","Pitch-Pulse-L","Pitch-Pulse-H",0
49,50,4874,"2LjHMOdApU","Pitch-Size-Color-1","Color-RG-L","Color-RG-H","Pitch-Pulse-H","Pitch-Pulse-L",0
50,51,6714,"2LjHMOdApU","Pitch-Size-Color-1","Noise-Pulse-H","Noise-Pulse-L","Pitch-Piano-H","Pitch-Piano-L",1
51,52,3425,"2LjHMOdApU","Pitch-Size-Color-1","Color-RY-H","Color-RY-L","Brightness-Circles-H","Brightness-Circles-L",1
52,53,6281,"2LjHMOdApU","Pitch-Size-Color-1","Pitch-Hum-L","Pitch-Hum-H","Amp-Tone-L","Amp-Tone-H",1
53,54,6977,"2LjHMOdApU","Pitch-Size-Color-1","Amp-Tone-H","Amp-Tone-L","Size-Diamonds-H","Size-Diamonds-L",0
54,55,5058,"2LjHMOdApU","Pitch-Size-Color-1","Pitch-Hum-H","Pitch-Hum-L","Affect-EB-L","Affect-EB-H",0
55,56,2597,"2LjHMOdApU","Pitch-Size-Color-1","Brightness-Circles-H","Brightness-Circles-L","Size-Diamonds-L","Size-Diamonds-H",1
56,57,5760,"2LjHMOdApU","Pitch-Size-Color-1","Color-RG-H","Color-RG-L","Amp-Tone-H","Amp-Tone-L",0
57,58,3803,"2LjHMOdApU","Pitch-Size-Color-1","Color-RY-L","Color-RY-H","Speed-SP1-L","Speed-SP1-H",0
58,59,2525,"2LjHMOdApU","Pitch-Size-Color-1","Size-Squares-H","Size-Squares-L","Color-RB-L","Color-RB-H",1
59,60,1516,"2LjHMOdApU","Pitch-Size-Color-1","Size-Triangles-L","Size-Triangles-H","Brightness-Circles-L","Brightness-Circles-H",0
60,61,1221,"2LjHMOdApU","Pitch-Size-Color-1","Brightness-Circles-L","Brightness-Circles-H","Color-RB-H","Color-RB-L",1
61,62,6441,"2LjHMOdApU","Pitch-Size-Color-1","Affect-EB-L","Affect-EB-H","Pitch-Piano-H","Pitch-Piano-L",0
62,63,3745,"2LjHMOdApU","Pitch-Size-Color-1","Pitch-Hum-L","Pitch-Hum-H","Brightness-Circles-H","Brightness-Circles-L",1
63,64,1532,"2LjHMOdApU","Pitch-Size-Color-1","Color-RG-H","Color-RG-L","Shape-BK1-H","Shape-BK1-L",1
64,65,6017,"2LjHMOdApU","Pitch-Size-Color-1","Pitch-Pulse-L","Pitch-Pulse-H","Amp-Tone-H","Amp-Tone-L",0
65,66,1802,"2LjHMOdApU","Pitch-Size-Color-1","Shape-BK1-H","Shape-BK1-L","Color-YB-H","Color-YB-L",0
66,67,2099,"2LjHMOdApU","Pitch-Size-Color-1","Size-Squares-L","Size-Squares-H","Speed-SP1-H","Speed-SP1-L",0
67,68,1221,"2LjHMOdApU","Pitch-Size-Color-1","Speed-SP1-L","Speed-SP1-H","Size-Circles-L","Size-Circles-H",0
68,69,1139,"2LjHMOdApU","Pitch-Size-Color-1","Affect-EB-L","Affect-EB-H","Color-YB-H","Color-YB-L",1
69,70,3898,"2LjHMOdApU","Pitch-Size-Color-1","Amp-Tone-L","Amp-Tone-H","Size-Circles-H","Size-Circles-L",1
70,71,7961,"2LjHMOdApU","Pitch-Size-Color-1","Noise-Pulse-L","Noise-Pulse-H","Pitch-Tone-H","Pitch-Tone-L",0
71,72,1523,"2LjHMOdApU","Pitch-Size-Color-1","Color-RY-H","Color-RY-L","Shape-BK1-H","Shape-BK1-L",0
72,73,1445,"2LjHMOdApU","Pitch-Size-Color-1","Color-RB-L","Color-RB-H","Size-Circles-H","Size-Circles-L",1
73,74,1747,"2LjHMOdApU","Pitch-Size-Color-1","Color-RG-L","Color-RG-H","Size-Triangles-H","Size-Triangles-L",1
74,75,1364,"2LjHMOdApU","Pitch-Size-Color-1","Shape-BK1-H","Shape-BK1-L","Color-RB-H","Color-RB-L",0
75,76,1132,"2LjHMOdApU","Pitch-Size-Color-1","Shape-BK1-L","Shape-BK1-H","Size-Diamonds-H","Size-Diamonds-L",0
76,77,4867,"2LjHMOdApU","Pitch-Size-Color-1","Noise-Pulse-H","Noise-Pulse-L","Color-YB-L","Color-YB-H",1
77,78,4248,"2LjHMOdApU","Pitch-Size-Color-1","Color-RG-L","Color-RG-H","Noise-Pulse-L","Noise-Pulse-H",0
78,79,5080,"2LjHMOdApU","Pitch-Size-Color-1","Pitch-Pulse-H","Pitch-Pulse-L","Size-Triangles-H","Size-Triangles-L",1
79,80,4092,"2LjHMOdApU","Pitch-Size-Color-1","Noise-Pulse-L","Noise-Pulse-H","Color-RB-L","Color-RB-H",1
80,81,1938,"2LjHMOdApU","Pitch-Size-Color-1","Color-RY-L","Color-RY-H","Size-Triangles-L","Size-Triangles-H",1
81,82,6644,"2LjHMOdApU","Pitch-Size-Color-1","Color-RB-H","Color-RB-L","Size-Diamonds-H","Size-Diamonds-L",0
82,83,997,"2LjHMOdApU","Pitch-Size-Color-1","Color-RG-H","Color-RG-L","Brightness-Circles-L","Brightness-Circles-H",1
83,84,837,"2LjHMOdApU","Pitch-Size-Color-1","Size-Triangles-L","Size-Triangles-H","Color-RB-L","Color-RB-H",0
84,85,716,"2LjHMOdApU","Pitch-Size-Color-1","Size-Triangles-L","Size-Triangles-H","Color-YB-L","Color-YB-H",1
85,86,6204,"2LjHMOdApU","Pitch-Size-Color-1","Amp-Tone-L","Amp-Tone-H","Pitch-Tone-L","Pitch-Tone-H",0
86,87,1460,"2LjHMOdApU","Pitch-Size-Color-1","Size-Squares-H","Size-Squares-L","Affect-EB-L","Affect-EB-H",0
87,88,3811,"2LjHMOdApU","Pitch-Size-Color-1","Pitch-Pulse-L","Pitch-Pulse-H","Color-RB-L","Color-RB-H",0
88,89,1464,"2LjHMOdApU","Pitch-Size-Color-1","Size-Squares-H","Size-Squares-L","Shape-BK1-H","Shape-BK1-L",1
89,90,5300,"2LjHMOdApU","Pitch-Size-Color-1","Brightness-Circles-L","Brightness-Circles-H","Pitch-Piano-L","Pitch-Piano-H",0
90,91,9527,"2LjHMOdApU","Pitch-Size-Color-1","Pitch-Pulse-H","Pitch-Pulse-L","Size-Circles-L","Size-Circles-H",0
91,92,5018,"2LjHMOdApU","Pitch-Size-Color-1","Pitch-Pulse-L","Pitch-Pulse-H","Shape-BK1-L","Shape-BK1-H",0
92,93,1763,"2LjHMOdApU","Pitch-Size-Color-1","Affect-EB-H","Affect-EB-L","Size-Diamonds-H","Size-Diamonds-L",0
93,94,4538,"2LjHMOdApU","Pitch-Size-Color-1","Noise-Pulse-L","Noise-Pulse-H","Size-Circles-L","Size-Circles-H",1
94,95,4362,"2LjHMOdApU","Pitch-Size-Color-1","Speed-SP1-H","Speed-SP1-L","Pitch-Piano-L","Pitch-Piano-H",1
95,96,3673,"2LjHMOdApU","Pitch-Size-Color-1","Size-Squares-L","Size-Squares-H","Noise-Pulse-H","Noise-Pulse-L",0
0,1,6939,"2Rp2H4XHFF","Noise-Brightness-Color-15","Brightness-Circles-L","Brightness-Circles-H","Affect-SC-L","Affect-SC-H",0
1,2,5758,"2Rp2H4XHFF","Noise-Brightness-Color-15","Speed-SP4-H","Speed-SP4-L","Color-RY-L","Color-RY-H",0
2,3,7476,"2Rp2H4XHFF","Noise-Brightness-Color-15","Brightness-Circles-H","Brightness-Circles-L","Noise-Hum-H","Noise-Hum-L",0
3,4,5701,"2Rp2H4XHFF","Noise-Brightness-Color-15","Speed-SP4-L","Speed-SP4-H","Brightness-Squares-L","Brightness-Squares-H",0
4,5,7509,"2Rp2H4XHFF","Noise-Brightness-Color-15","Affect-SC-L","Affect-SC-H","Noise-Hum-H","Noise-Hum-L",0
5,6,10098,"2Rp2H4XHFF","Noise-Brightness-Color-15","Amp-Piano-L","Amp-Piano-H","Noise-Pulse-H","Noise-Pulse-L",0
6,7,7941,"2Rp2H4XHFF","Noise-Brightness-Color-15","Brightness-Triangles-L","Brightness-Triangles-H","Color-RY-H","Color-RY-L",1
7,8,8421,"2Rp2H4XHFF","Noise-Brightness-Color-15","Color-RG-L","Color-RG-H","Shape-BK1-H","Shape-BK1-L",0
8,9,9222,"2Rp2H4XHFF","Noise-Brightness-Color-15","Color-RB-H","Color-RB-L","Pitch-Pulse-H","Pitch-Pulse-L",1
9,10,6990,"2Rp2H4XHFF","Noise-Brightness-Color-15","Noise-Tone-L","Noise-Tone-H","Amp-Piano-L","Amp-Piano-H",0
10,11,11066,"2Rp2H4XHFF","Noise-Brightness-Color-15","Pitch-Pulse-L","Pitch-Pulse-H","Noise-Pulse-L","Noise-Pulse-H",0
11,12,11031,"2Rp2H4XHFF","Noise-Brightness-Color-15","Noise-Piano-L","Noise-Piano-H","Amp-Piano-H","Amp-Piano-L",0
12,13,11280,"2Rp2H4XHFF","Noise-Brightness-Color-15","Brightness-Circles-H","Brightness-Circles-L","Pitch-Pulse-H","Pitch-Pulse-L",0
13,14,6714,"2Rp2H4XHFF","Noise-Brightness-Color-15","Affect-SC-H","Affect-SC-L","Noise-Pulse-H","Noise-Pulse-L",1
