,trialNum,rt,subject,condition,InducerL,InducerR,ConcurrentL,ConcurrentR,choice
0,1.0,9226.0,0BwAB3cQny,Noise-Shape-Speed-10,Affect-EB-H,Affect-EB-L,Noise-Piano-H,Noise-Piano-L,1
1,2.0,7482.0,0BwAB3cQny,Noise-Shape-Speed-10,Noise-Hum-L,Noise-Hum-H,Speed-SP3-L,Speed-SP3-H,1
2,3.0,6335.0,0BwAB3cQny,Noise-Shape-Speed-10,Brightness-Squares-L,Brightness-Squares-H,Speed-SP2-H,Speed-SP2-L,1
3,4.0,6459.0,0BwAB3cQny,Noise-Shape-Speed-10,Amp-Pulse-L,Amp-Pulse-H,Speed-SP3-H,Speed-SP3-L,1
4,5.0,6483.0,0BwAB3cQny,Noise-Shape-Speed-10,Noise-Hum-H,Noise-Hum-L,Speed-SP2-L,Speed-SP2-H,1
5,6.0,8374.0,0BwAB3cQny,Noise-Shape-Speed-10,Noise-Pulse-L,Noise-Pulse-H,Pitch-Piano-L,Pitch-Piano-H,0
6,7.0,3768.0,0BwAB3cQny,Noise-Shape-Speed-10,Brightness-Squares-L,Brightness-Squares-H,Speed-SP3-H,Speed-SP3-L,1
7,8.0,5369.0,0BwAB3cQny,Noise-Shape-Speed-10,Brightness-Squares-H,Brightness-Squares-L,Shape-BK2-L,Shape-BK2-H,0
8,9.0,4081.0,0BwAB3cQny,Noise-Shape-Speed-10,Shape-BK1-H,Shape-BK1-L,Brightness-Squares-L,Brightness-Squares-H,0
9,10.0,5043.0,0BwAB3cQny,Noise-Shape-Speed-10,Amp-Pulse-L,Amp-Pulse-H,Shape-BK2-H,Shape-BK2-L,1
10,11.0,6608.0,0BwAB3cQny,Noise-Shape-Speed-10,Color-RY-L,Color-RY-H,Noise-Piano-H,Noise-Piano-L,1
11,12.0,13163.0,0BwAB3cQny,Noise-Shape-Speed-10,Pitch-Piano-H,Pitch-Piano-L,Noise-Piano-L,Noise-Piano-H,1
12,13.0,3347.0,0BwAB3cQny,Noise-Shape-Speed-10,Color-RY-H,Color-RY-L,Shape-BK4-H,Shape-BK4-L,1
13,14.0,8478.0,0BwAB3cQny,Noise-Shape-Speed-10,Amp-Pulse-L,Amp-Pulse-H,Noise-Tone-H,Noise-Tone-L,0
14,15.0,6308.0,0BwAB3cQny,Noise-Shape-Speed-10,Speed-SP4-H,Speed-SP4-L,Pitch-Piano-L,Pitch-Piano-H,0
15,16.0,5375.0,0BwAB3cQny,Noise-Shape-Speed-10,Speed-SP1-H,Speed-SP1-L,Noise-Piano-L,Noise-Piano-H,0
16,17.0,4724.0,0BwAB3cQny,Noise-Shape-Speed-10,Color-RY-H,Color-RY-L,Speed-SP2-L,Speed-SP2-H,0
17,18.0,6070.0,0BwAB3cQny,Noise-Shape-Speed-10,Shape-BK3-H,Shape-BK3-L,Noise-Piano-L,Noise-Piano-H,0
18,19.0,4967.0,0BwAB3cQny,Noise-Shape-Speed-10,Noise-Pulse-L,Noise-Pulse-H,Brightness-Squares-H,Brightness-Squares-L,0
19,20.0,5892.0,0BwAB3cQny,Noise-Shape-Speed-10,Size-Triangles-L,Size-Triangles-H,Shape-BK4-H,Shape-BK4-L,0
20,21.0,3310.0,0BwAB3cQny,Noise-Shape-Speed-10,Brightness-Squares-H,Brightness-Squares-L,Shape-BK4-L,Shape-BK4-H,0
21,22.0,4102.0,0BwAB3cQny,Noise-Shape-Speed-10,Shape-BK3-L,Shape-BK3-H,Noise-Tone-L,Noise-Tone-H,0
22,23.0,6944.0,0BwAB3cQny,Noise-Shape-Speed-10,Noise-Hum-H,Noise-Hum-L,Shape-BK4-L,Shape-BK4-H,0
23,24.0,4103.0,0BwAB3cQny,Noise-Shape-Speed-10,Noise-Pulse-H,Noise-Pulse-L,Color-RY-H,Color-RY-L,1
24,25.0,5033.0,0BwAB3cQny,Noise-Shape-Speed-10,Size-Triangles-L,Size-Triangles-H,Noise-Piano-H,Noise-Piano-L,0
25,26.0,5652.0,0BwAB3cQny,Noise-Shape-Speed-10,Noise-Hum-L,Noise-Hum-H,Affect-EB-L,Affect-EB-H,1
26,27.0,4996.0,0BwAB3cQny,Noise-Shape-Speed-10,Speed-SP4-L,Speed-SP4-H,Shape-BK3-H,Shape-BK3-L,1
27,28.0,4306.0,0BwAB3cQny,Noise-Shape-Speed-10,Affect-EB-H,Affect-EB-L,Speed-SP2-H,Speed-SP2-L,0
28,29.0,6073.0,0BwAB3cQny,Noise-Shape-Speed-10,Size-Triangles-L,Size-Triangles-H,Speed-SP2-L,Speed-SP2-H,1
29,30.0,6378.0,0BwAB3cQny,Noise-Shape-Speed-10,Pitch-Piano-H,Pitch-Piano-L,Noise-Tone-L,Noise-Tone-H,1
30,31.0,4531.0,0BwAB3cQny,Noise-Shape-Speed-10,Speed-SP1-H,Speed-SP1-L,Shape-BK3-L,Shape-BK3-H,0
31,32.0,6153.0,0BwAB3cQny,Noise-Shape-Speed-10,Amp-Pulse-L,Amp-Pulse-H,Speed-SP2-H,Speed-SP2-L,1
32,33.0,3305.0,0BwAB3cQny,Noise-Shape-Speed-10,Shape-BK3-L,Shape-BK3-H,Brightness-Squares-L,Brightness-Squares-H,1
33,34.0,3813.0,0BwAB3cQny,Noise-Shape-Speed-10,Shape-BK3-L,Shape-BK3-H,Noise-Hum-L,Noise-Hum-H,0
34,35.0,7292.0,0BwAB3cQny,Noise-Shape-Speed-10,Noise-Hum-L,Noise-Hum-H,Shape-BK2-L,Shape-BK2-H,0
35,36.0,5316.0,0BwAB3cQny,Noise-Shape-Speed-10,Shape-BK1-H,Shape-BK1-L,Pitch-Piano-L,Pitch-Piano-H,1
36,37.0,4766.0,0BwAB3cQny,Noise-Shape-Speed-10,Shape-BK1-L,Shape-BK1-H,Color-RY-L,Color-RY-H,0
37,38.0,3645.0,0BwAB3cQny,Noise-Shape-Speed-10,Shape-BK3-H,Shape-BK3-L,Affect-EB-H,Affect-EB-L,1
38,39.0,4374.0,0BwAB3cQny,Noise-Shape-Speed-10,Speed-SP4-L,Speed-SP4-H,Affect-EB-L,Affect-EB-H,0
39,40.0,4368.0,0BwAB3cQny,Noise-Shape-Speed-10,Speed-SP1-L,Speed-SP1-H,Shape-BK4-L,Shape-BK4-H,0
40,41.0,3636.0,0BwAB3cQny,Noise-Shape-Speed-10,Shape-BK1-L,Shape-BK1-H,Affect-EB-H,Affect-EB-L,0
41,42.0,4142.0,0BwAB3cQny,Noise-Shape-Speed-10,Brightness-Squares-L,Brightness-Squares-H,Noise-Tone-L,Noise-Tone-H,1
42,43.0,4635.0,0BwAB3cQny,Noise-Shape-Speed-10,Speed-SP1-L,Speed-SP1-H,Color-RY-L,Color-RY-H,1
43,44.0,5054.0,0BwAB3cQny,Noise-Shape-Speed-10,Speed-SP1-H,Speed-SP1-L,Brightness-Squares-H,Brightness-Squares-L,0
44,45.0,3136.0,0BwAB3cQny,Noise-Shape-Speed-10,Affect-EB-L,Affect-EB-H,Speed-SP3-H,Speed-SP3-L,1
45,46.0,4110.0,0BwAB3cQny,Noise-Shape-Speed-10,Pitch-Piano-H,Pitch-Piano-L,Speed-SP3-L,Speed-SP3-H,0
46,47.0,3034.0,0BwAB3cQny,Noise-Shape-Speed-10,Speed-SP4-L,Speed-SP4-H,Brightness-Squares-H,Brightness-Squares-L,1
47,48.0,4477.0,0BwAB3cQny,Noise-Shape-Speed-10,Noise-Hum-L,Noise-Hum-H,Color-RY-H,Color-RY-L,1
48,49.0,4446.0,0BwAB3cQny,Noise-Shape-Speed-10,Shape-BK1-L,Shape-BK1-H,Amp-Pulse-L,Amp-Pulse-H,0
49,50.0,2646.0,0BwAB3cQny,Noise-Shape-Speed-10,Color-RY-L,Color-RY-H,Speed-SP3-L,Speed-SP3-H,1
50,51.0,3220.0,0BwAB3cQny,Noise-Shape-Speed-10,Speed-SP4-L,Speed-SP4-H,Amp-Pulse-L,Amp-Pulse-H,0
51,52.0,3979.0,0BwAB3cQny,Noise-Shape-Speed-10,Shape-BK1-H,Shape-BK1-L,Noise-Hum-L,Noise-Hum-H,1
52,53.0,4279.0,0BwAB3cQny,Noise-Shape-Speed-10,Pitch-Piano-L,Pitch-Piano-H,Shape-BK4-L,Shape-BK4-H,0
53,54.0,3598.0,0BwAB3cQny,Noise-Shape-Speed-10,Shape-BK3-L,Shape-BK3-H,Pitch-Piano-L,Pitch-Piano-H,0
54,55.0,3967.0,0BwAB3cQny,Noise-Shape-Speed-10,Shape-BK3-H,Shape-BK3-L,Speed-SP3-H,Speed-SP3-L,0
55,56.0,4399.0,0BwAB3cQny,Noise-Shape-Speed-10,Shape-BK3-H,Shape-BK3-L,Amp-Pulse-H,Amp-Pulse-L,1
56,57.0,3620.0,0BwAB3cQny,Noise-Shape-Speed-10,Color-RY-H,Color-RY-L,Shape-BK2-H,Shape-BK2-L,0
57,58.0,4551.0,0BwAB3cQny,Noise-Shape-Speed-10,Shape-BK1-H,Shape-BK1-L,Speed-SP1-L,Speed-SP1-H,1
58,59.0,7125.0,0BwAB3cQny,Noise-Shape-Speed-10,Noise-Pulse-H,Noise-Pulse-L,Amp-Pulse-H,Amp-Pulse-L,1
59,60.0,4592.0,0BwAB3cQny,Noise-Shape-Speed-10,Speed-SP1-H,Speed-SP1-L,Noise-Tone-L,Noise-Tone-H,0
60,61.0,3835.0,0BwAB3cQny,Noise-Shape-Speed-10,Noise-Pulse-L,Noise-Pulse-H,Shape-BK3-L,Shape-BK3-H,0
61,62.0,3831.0,0BwAB3cQny,Noise-Shape-Speed-10,Amp-Pulse-H,Amp-Pulse-L,Shape-BK4-H,Shape-BK4-L,1
62,63.0,2990.0,0BwAB3cQny,Noise-Shape-Speed-10,Shape-BK3-H,Shape-BK3-L,Color-RY-H,Color-RY-L,0
63,64.0,4748.0,0BwAB3cQny,Noise-Shape-Speed-10,Noise-Pulse-H,Noise-Pulse-L,Affect-EB-H,Affect-EB-L,1
64,65.0,3118.0,0BwAB3cQny,Noise-Shape-Speed-10,Size-Triangles-H,Size-Triangles-L,Speed-SP3-L,Speed-SP3-H,1
65,66.0,5105.0,0BwAB3cQny,Noise-Shape-Speed-10,Noise-Hum-H,Noise-Hum-L,Brightness-Squares-L,Brightness-Squares-H,0
66,67.0,3745.0,0BwAB3cQny,Noise-Shape-Speed-10,Shape-BK3-H,Shape-BK3-L,Speed-SP2-H,Speed-SP2-L,1
67,68.0,4267.0,0BwAB3cQny,Noise-Shape-Speed-10,Pitch-Piano-H,Pitch-Piano-L,Shape-BK2-L,Shape-BK2-H,1
68,69.0,5038.0,0BwAB3cQny,Noise-Shape-Speed-10,Speed-SP1-L,Speed-SP1-H,Pitch-Piano-L,Pitch-Piano-H,1
69,70.0,4068.0,0BwAB3cQny,Noise-Shape-Speed-10,Speed-SP1-L,Speed-SP1-H,Noise-Hum-L,Noise-Hum-H,1
70,71.0,4830.0,0BwAB3cQny,Noise-Shape-Speed-10,Speed-SP1-H,Speed-SP1-L,Shape-BK2-L,Shape-BK2-H,0
71,72.0,3603.0,0BwAB3cQny,Noise-Shape-Speed-10,Affect-EB-L,Affect-EB-H,Shape-BK4-H,Shape-BK4-L,0
72,73.0,7115.0,0BwAB3cQny,Noise-Shape-Speed-10,Noise-Pulse-L,Noise-Pulse-H,Speed-SP1-L,Speed-SP1-H,1
73,74.0,4761.0,0BwAB3cQny,Noise-Shape-Speed-10,Affect-EB-L,Affect-EB-H,Shape-BK2-H,Shape-BK2-L,0
74,75.0,4132.0,0BwAB3cQny,Noise-Shape-Speed-10,Noise-Hum-H,Noise-Hum-L,Speed-SP1-H,Speed-SP1-L,1
75,76.0,3962.0,0BwAB3cQny,Noise-Shape-Speed-10,Noise-Hum-L,Noise-Hum-H,Size-Triangles-H,Size-Triangles-L,0
76,77.0,5122.0,0BwAB3cQny,Noise-Shape-Speed-10,Speed-SP1-H,Speed-SP1-L,Amp-Pulse-H,Amp-Pulse-L,0
77,78.0,4801.0,0BwAB3cQny,Noise-Shape-Speed-10,Speed-SP1-L,Speed-SP1-H,Size-Triangles-L,Size-Triangles-H,0
78,79.0,3190.0,0BwAB3cQny,Noise-Shape-Speed-10,Size-Triangles-L,Size-Triangles-H,Noise-Tone-H,Noise-Tone-L,0
79,80.0,3907.0,0BwAB3cQny,Noise-Shape-Speed-10,Shape-BK3-H,Shape-BK3-L,Size-Triangles-H,Size-Triangles-L,1
80,81.0,10767.0,0BwAB3cQny,Noise-Shape-Speed-10,Brightness-Squares-L,Brightness-Squares-H,Noise-Piano-L,Noise-Piano-H,1
81,82.0,4304.0,0BwAB3cQny,Noise-Shape-Speed-10,Noise-Pulse-H,Noise-Pulse-L,Size-Triangles-L,Size-Triangles-H,0
82,83.0,2987.0,0BwAB3cQny,Noise-Shape-Speed-10,Size-Triangles-H,Size-Triangles-L,Shape-BK2-H,Shape-BK2-L,1
83,84.0,7155.0,0BwAB3cQny,Noise-Shape-Speed-10,Noise-Hum-H,Noise-Hum-L,Pitch-Piano-H,Pitch-Piano-L,0
84,85.0,2905.0,0BwAB3cQny,Noise-Shape-Speed-10,Shape-BK3-L,Shape-BK3-H,Speed-SP1-H,Speed-SP1-L,1
85,86.0,3477.0,0BwAB3cQny,Noise-Shape-Speed-10,Speed-SP1-H,Speed-SP1-L,Affect-EB-H,Affect-EB-L,0
86,87.0,2244.0,0BwAB3cQny,Noise-Shape-Speed-10,Speed-SP4-H,Speed-SP4-L,Color-RY-H,Color-RY-L,1
87,88.0,4047.0,0BwAB3cQny,Noise-Shape-Speed-10,Noise-Hum-H,Noise-Hum-L,Shape-BK3-H,Shape-BK3-L,0
88,89.0,3955.0,0BwAB3cQny,Noise-Shape-Speed-10,Color-RY-H,Color-RY-L,Noise-Tone-H,Noise-Tone-L,0
89,90.0,5420.0,0BwAB3cQny,Noise-Shape-Speed-10,Amp-Pulse-L,Amp-Pulse-H,Noise-Piano-H,Noise-Piano-L,0
90,91.0,3874.0,0BwAB3cQny,Noise-Shape-Speed-10,Affect-EB-H,Affect-EB-L,Noise-Tone-H,Noise-Tone-L,1
91,92.0,3506.0,0BwAB3cQny,Noise-Shape-Speed-10,Speed-SP4-H,Speed-SP4-L,Size-Triangles-H,Size-Triangles-L,0
92,93.0,3569.0,0BwAB3cQny,Noise-Shape-Speed-10,Speed-SP4-H,Speed-SP4-L,Noise-Hum-H,Noise-Hum-L,1
93,94.0,5289.0,0BwAB3cQny,Noise-Shape-Speed-10,Noise-Hum-L,Noise-Hum-H,Amp-Pulse-L,Amp-Pulse-H,1
94,95.0,4540.0,0BwAB3cQny,Noise-Shape-Speed-10,Pitch-Piano-L,Pitch-Piano-H,Speed-SP2-L,Speed-SP2-H,1
95,96.0,3400.0,0BwAB3cQny,Noise-Shape-Speed-10,Shape-BK1-L,Shape-BK1-H,Size-Triangles-H,Size-Triangles-L,0
0,1.0,4844.0,2fgfNXCWoW,Pitch-Size-Color-9,Color-YB-L,Color-YB-H,Noise-Hum-L,Noise-Hum-H,1
1,2.0,3273.0,2fgfNXCWoW,Pitch-Size-Color-9,Shape-BK2-L,Shape-BK2-H,Color-RB-L,Color-RB-H,1
2,3.0,5587.0,2fgfNXCWoW,Pitch-Size-Color-9,Pitch-Hum-H,Pitch-Hum-L,Noise-Hum-L,Noise-Hum-H,1
3,4.0,3369.0,2fgfNXCWoW,Pitch-Size-Color-9,Size-Squares-L,Size-Squares-H,Brightness-Triangles-L,Brightness-Triangles-H,0
4,5.0,3926.0,2fgfNXCWoW,Pitch-Size-Color-9,Brightness-Triangles-H,Brightness-Triangles-L,Pitch-Pulse-H,Pitch-Pulse-L,1
5,6.0,3562.0,2fgfNXCWoW,Pitch-Size-Color-9,Speed-SP4-L,Speed-SP4-H,Color-RY-L,Color-RY-H,0
6,7.0,3924.0,2fgfNXCWoW,Pitch-Size-Color-9,Size-Squares-H,Size-Squares-L,Amp-Tone-H,Amp-Tone-L,0
7,8.0,5651.0,2fgfNXCWoW,Pitch-Size-Color-9,Noise-Hum-L,Noise-Hum-H,Pitch-Tone-H,Pitch-Tone-L,1
8,9.0,2170.0,2fgfNXCWoW,Pitch-Size-Color-9,Size-Diamonds-H,Size-Diamonds-L,Color-RY-L,Color-RY-H,0
9,10.0,5177.0,2fgfNXCWoW,Pitch-Size-Color-9,Pitch-Hum-L,Pitch-Hum-H,Brightness-Triangles-L,Brightness-Triangles-H,1
10,11.0,7778.0,2fgfNXCWoW,Pitch-Size-Color-9,Pitch-Piano-H,Pitch-Piano-L,Noise-Hum-H,Noise-Hum-L,0
11,12.0,2847.0,2fgfNXCWoW,Pitch-Size-Color-9,Speed-SP4-L,Speed-SP4-H,Size-Circles-L,Size-Circles-H,1
12,13.0,4017.0,2fgfNXCWoW,Pitch-Size-Color-9,Affect-EB-L,Affect-EB-H,Color-RY-H,Color-RY-L,1
13,14.0,4472.0,2fgfNXCWoW,Pitch-Size-Color-9,Affect-EB-L,Affect-EB-H,Color-RB-L,Color-RB-H,0
14,15.0,2985.0,2fgfNXCWoW,Pitch-Size-Color-9,Size-Squares-H,Size-Squares-L,Color-RY-L,Color-RY-H,1
15,16.0,5278.0,2fgfNXCWoW,Pitch-Size-Color-9,Pitch-Piano-L,Pitch-Piano-H,Brightness-Triangles-H,Brightness-Triangles-L,0
16,17.0,2585.0,2fgfNXCWoW,Pitch-Size-Color-9,Shape-BK2-L,Shape-BK2-H,Size-Circles-H,Size-Circles-L,1
17,18.0,2712.0,2fgfNXCWoW,Pitch-Size-Color-9,Brightness-Triangles-H,Brightness-Triangles-L,Size-Circles-L,Size-Circles-H,1
18,19.0,1953.0,2fgfNXCWoW,Pitch-Size-Color-9,Size-Diamonds-L,Size-Diamonds-H,Brightness-Triangles-H,Brightness-Triangles-L,1
19,20.0,2121.0,2fgfNXCWoW,Pitch-Size-Color-9,Color-YB-H,Color-YB-L,Brightness-Triangles-H,Brightness-Triangles-L,0
20,21.0,1791.0,2fgfNXCWoW,Pitch-Size-Color-9,Color-RY-H,Color-RY-L,Size-Triangles-L,Size-Triangles-H,1
21,22.0,6628.0,2fgfNXCWoW,Pitch-Size-Color-9,Size-Squares-L,Size-Squares-H,Noise-Hum-H,Noise-Hum-L,1
22,23.0,3033.0,2fgfNXCWoW,Pitch-Size-Color-9,Speed-SP4-H,Speed-SP4-L,Size-Triangles-H,Size-Triangles-L,1
23,24.0,3883.0,2fgfNXCWoW,Pitch-Size-Color-9,Size-Diamonds-H,Size-Diamonds-L,Affect-EB-L,Affect-EB-H,1
24,25.0,4732.0,2fgfNXCWoW,Pitch-Size-Color-9,Noise-Hum-H,Noise-Hum-L,Color-RB-H,Color-RB-L,1
25,26.0,6893.0,2fgfNXCWoW,Pitch-Size-Color-9,Pitch-Piano-L,Pitch-Piano-H,Shape-BK2-L,Shape-BK2-H,0
26,27.0,2025.0,2fgfNXCWoW,Pitch-Size-Color-9,Brightness-Triangles-L,Brightness-Triangles-H,Size-Triangles-H,Size-Triangles-L,1
27,28.0,5496.0,2fgfNXCWoW,Pitch-Size-Color-9,Pitch-Hum-L,Pitch-Hum-H,Amp-Tone-L,Amp-Tone-H,1
28,29.0,2705.0,2fgfNXCWoW,Pitch-Size-Color-9,Color-RG-L,Color-RG-H,Speed-SP4-H,Speed-SP4-L,1
29,30.0,4221.0,2fgfNXCWoW,Pitch-Size-Color-9,Amp-Tone-H,Amp-Tone-L,Color-RB-L,Color-RB-H,1
30,31.0,3336.0,2fgfNXCWoW,Pitch-Size-Color-9,Size-Squares-H,Size-Squares-L,Shape-BK2-L,Shape-BK2-H,1
31,32.0,3697.0,2fgfNXCWoW,Pitch-Size-Color-9,Size-Squares-H,Size-Squares-L,Affect-EB-H,Affect-EB-L,0
32,33.0,3967.0,2fgfNXCWoW,Pitch-Size-Color-9,Noise-Hum-H,Noise-Hum-L,Size-Triangles-H,Size-Triangles-L,0
33,34.0,4430.0,2fgfNXCWoW,Pitch-Size-Color-9,Affect-EB-H,Affect-EB-L,Pitch-Pulse-L,Pitch-Pulse-H,1
34,35.0,4556.0,2fgfNXCWoW,Pitch-Size-Color-9,Pitch-Hum-L,Pitch-Hum-H,Speed-SP4-L,Speed-SP4-H,1
35,36.0,3297.0,2fgfNXCWoW,Pitch-Size-Color-9,Color-RG-L,Color-RG-H,Size-Squares-L,Size-Squares-H,1
36,37.0,4565.0,2fgfNXCWoW,Pitch-Size-Color-9,Brightness-Triangles-L,Brightness-Triangles-H,Pitch-Tone-L,Pitch-Tone-H,0
37,38.0,4134.0,2fgfNXCWoW,Pitch-Size-Color-9,Pitch-Hum-H,Pitch-Hum-L,Size-Squares-H,Size-Squares-L,1
38,39.0,4153.0,2fgfNXCWoW,Pitch-Size-Color-9,Brightness-Triangles-L,Brightness-Triangles-H,Color-RB-L,Color-RB-H,0
39,40.0,3713.0,2fgfNXCWoW,Pitch-Size-Color-9,Color-YB-H,Color-YB-L,Affect-EB-L,Affect-EB-H,0
40,41.0,3337.0,2fgfNXCWoW,Pitch-Size-Color-9,Speed-SP4-H,Speed-SP4-L,Color-RB-H,Color-RB-L,0
41,42.0,1914.0,2fgfNXCWoW,Pitch-Size-Color-9,Color-YB-H,Color-YB-L,Shape-BK2-L,Shape-BK2-H,1
42,43.0,5076.0,2fgfNXCWoW,Pitch-Size-Color-9,Color-RG-L,Color-RG-H,Pitch-Pulse-H,Pitch-Pulse-L,0
43,44.0,3789.0,2fgfNXCWoW,Pitch-Size-Color-9,Color-RY-L,Color-RY-H,Pitch-Pulse-L,Pitch-Pulse-H,0
44,45.0,5060.0,2fgfNXCWoW,Pitch-Size-Color-9,Size-Squares-L,Size-Squares-H,Pitch-Pulse-L,Pitch-Pulse-H,1
45,46.0,4278.0,2fgfNXCWoW,Pitch-Size-Color-9,Affect-EB-L,Affect-EB-H,Pitch-Tone-H,Pitch-Tone-L,0
46,47.0,4686.0,2fgfNXCWoW,Pitch-Size-Color-9,Pitch-Piano-H,Pitch-Piano-L,Affect-EB-L,Affect-EB-H,0
47,48.0,4271.0,2fgfNXCWoW,Pitch-Size-Color-9,Shape-BK2-H,Shape-BK2-L,Pitch-Tone-L,Pitch-Tone-H,1
48,49.0,5576.0,2fgfNXCWoW,Pitch-Size-Color-9,Noise-Hum-L,Noise-Hum-H,Pitch-Pulse-L,Pitch-Pulse-H,1
49,50.0,3074.0,2fgfNXCWoW,Pitch-Size-Color-9,Shape-BK2-L,Shape-BK2-H,Size-Triangles-L,Size-Triangles-H,0
50,51.0,3935.0,2fgfNXCWoW,Pitch-Size-Color-9,Noise-Hum-H,Noise-Hum-L,Color-RY-L,Color-RY-H,0
51,52.0,4477.0,2fgfNXCWoW,Pitch-Size-Color-9,Pitch-Pulse-L,Pitch-Pulse-H,Size-Triangles-H,Size-Triangles-L,0
52,53.0,3693.0,2fgfNXCWoW,Pitch-Size-Color-9,Amp-Tone-H,Amp-Tone-L,Size-Circles-H,Size-Circles-L,0
53,54.0,3254.0,2fgfNXCWoW,Pitch-Size-Color-9,Amp-Tone-L,Amp-Tone-H,Size-Triangles-L,Size-Triangles-H,0
54,55.0,2992.0,2fgfNXCWoW,Pitch-Size-Color-9,Size-Squares-H,Size-Squares-L,Color-RB-H,Color-RB-L,1
55,56.0,3813.0,2fgfNXCWoW,Pitch-Size-Color-9,Size-Diamonds-L,Size-Diamonds-H,Pitch-Pulse-H,Pitch-Pulse-L,0
56,57.0,2073.0,2fgfNXCWoW,Pitch-Size-Color-9,Size-Squares-H,Size-Squares-L,Color-RY-L,Color-RY-H,1
57,58.0,5632.0,2fgfNXCWoW,Pitch-Size-Color-9,Amp-Tone-H,Amp-Tone-L,Pitch-Pulse-H,Pitch-Pulse-L,1
58,59.0,3748.0,2fgfNXCWoW,Pitch-Size-Color-9,Color-RG-H,Color-RG-L,Amp-Tone-H,Amp-Tone-L,0
59,60.0,3894.0,2fgfNXCWoW,Pitch-Size-Color-9,Pitch-Pulse-H,Pitch-Pulse-L,Color-RB-H,Color-RB-L,0
60,61.0,5766.0,2fgfNXCWoW,Pitch-Size-Color-9,Size-Diamonds-L,Size-Diamonds-H,Noise-Hum-L,Noise-Hum-H,0
61,62.0,2039.0,2fgfNXCWoW,Pitch-Size-Color-9,Shape-BK2-H,Shape-BK2-L,Color-RY-H,Color-RY-L,0
62,63.0,3425.0,2fgfNXCWoW,Pitch-Size-Color-9,Color-YB-L,Color-YB-H,Speed-SP4-L,Speed-SP4-H,0
63,64.0,1824.0,2fgfNXCWoW,Pitch-Size-Color-9,Color-RG-H,Color-RG-L,Shape-BK2-L,Shape-BK2-H,1
64,65.0,4735.0,2fgfNXCWoW,Pitch-Size-Color-9,Shape-BK2-H,Shape-BK2-L,Pitch-Pulse-H,Pitch-Pulse-L,1
65,66.0,5553.0,2fgfNXCWoW,Pitch-Size-Color-9,Amp-Tone-L,Amp-Tone-H,Pitch-Tone-L,Pitch-Tone-H,0
66,67.0,3551.0,2fgfNXCWoW,Pitch-Size-Color-9,Color-YB-H,Color-YB-L,Amp-Tone-H,Amp-Tone-L,1
67,68.0,4691.0,2fgfNXCWoW,Pitch-Size-Color-9,Color-YB-L,Color-YB-H,Pitch-Pulse-H,Pitch-Pulse-L,1
68,69.0,4062.0,2fgfNXCWoW,Pitch-Size-Color-9,Amp-Tone-H,Amp-Tone-L,Color-RY-H,Color-RY-L,0
69,70.0,4702.0,2fgfNXCWoW,Pitch-Size-Color-9,Pitch-Hum-L,Pitch-Hum-H,Shape-BK2-L,Shape-BK2-H,0
70,71.0,3367.0,2fgfNXCWoW,Pitch-Size-Color-9,Noise-Hum-L,Noise-Hum-H,Size-Circles-L,Size-Circles-H,0
71,72.0,3331.0,2fgfNXCWoW,Pitch-Size-Color-9,Pitch-Piano-H,Pitch-Piano-L,Size-Squares-H,Size-Squares-L,0
72,73.0,2809.0,2fgfNXCWoW,Pitch-Size-Color-9,Color-RG-H,Color-RG-L,Brightness-Triangles-H,Brightness-Triangles-L,0
73,74.0,4210.0,2fgfNXCWoW,Pitch-Size-Color-9,Affect-EB-L,Affect-EB-H,Size-Circles-H,Size-Circles-L,1
74,75.0,3651.0,2fgfNXCWoW,Pitch-Size-Color-9,Size-Squares-H,Size-Squares-L,Pitch-Tone-H,Pitch-Tone-L,1
75,76.0,3842.0,2fgfNXCWoW,Pitch-Size-Color-9,Affect-EB-L,Affect-EB-H,Size-Triangles-L,Size-Triangles-H,0
76,77.0,3462.0,2fgfNXCWoW,Pitch-Size-Color-9,Size-Diamonds-H,Size-Diamonds-L,Amp-Tone-H,Amp-Tone-L,0
77,78.0,4025.0,2fgfNXCWoW,Pitch-Size-Color-9,Pitch-Pulse-H,Pitch-Pulse-L,Color-RY-L,Color-RY-H,0
78,79.0,2034.0,2fgfNXCWoW,Pitch-Size-Color-9,Brightness-Triangles-L,Brightness-Triangles-H,Color-RY-H,Color-RY-L,1
79,80.0,3701.0,2fgfNXCWoW,Pitch-Size-Color-9,Color-RG-L,Color-RG-H,Noise-Hum-L,Noise-Hum-H,0
80,81.0,3861.0,2fgfNXCWoW,Pitch-Size-Color-9,Pitch-Pulse-H,Pitch-Pulse-L,Size-Circles-L,Size-Circles-H,0
81,82.0,2482.0,2fgfNXCWoW,Pitch-Size-Color-9,Size-Diamonds-L,Size-Diamonds-H,Speed-SP4-H,Speed-SP4-L,0
82,83.0,4103.0,2fgfNXCWoW,Pitch-Size-Color-9,Speed-SP4-L,Speed-SP4-H,Pitch-Tone-L,Pitch-Tone-H,0
83,84.0,2128.0,2fgfNXCWoW,Pitch-Size-Color-9,Color-YB-L,Color-YB-H,Size-Squares-L,Size-Squares-H,1
84,85.0,3621.0,2fgfNXCWoW,Pitch-Size-Color-9,Pitch-Hum-H,Pitch-Hum-L,Affect-EB-H,Affect-EB-L,1
85,86.0,3630.0,2fgfNXCWoW,Pitch-Size-Color-9,Color-RY-H,Color-RY-L,Pitch-Tone-H,Pitch-Tone-L,1
86,87.0,5132.0,2fgfNXCWoW,Pitch-Size-Color-9,Size-Squares-L,Size-Squares-H,Pitch-Pulse-L,Pitch-Pulse-H,1
87,88.0,5595.0,2fgfNXCWoW,Pitch-Size-Color-9,Speed-SP4-L,Speed-SP4-H,Pitch-Pulse-H,Pitch-Pulse-L,0
88,89.0,1541.0,2fgfNXCWoW,Pitch-Size-Color-9,Color-RY-H,Color-RY-L,Size-Circles-H,Size-Circles-L,0
89,90.0,5638.0,2fgfNXCWoW,Pitch-Size-Color-9,Pitch-Piano-L,Pitch-Piano-H,Amp-Tone-L,Amp-Tone-H,0
90,91.0,2296.0,2fgfNXCWoW,Pitch-Size-Color-9,Color-RG-H,Color-RG-L,Affect-EB-H,Affect-EB-L,1
91,92.0,2937.0,2fgfNXCWoW,Pitch-Size-Color-9,Size-Diamonds-H,Size-Diamonds-L,Shape-BK2-H,Shape-BK2-L,1
92,93.0,5565.0,2fgfNXCWoW,Pitch-Size-Color-9,Pitch-Hum-H,Pitch-Hum-L,Color-RY-H,Color-RY-L,0
93,94.0,2481.0,2fgfNXCWoW,Pitch-Size-Color-9,Size-Squares-L,Size-Squares-H,Speed-SP4-H,Speed-SP4-L,0
94,95.0,3687.0,2fgfNXCWoW,Pitch-Size-Color-9,Pitch-Piano-H,Pitch-Piano-L,Color-RY-L,Color-RY-H,1
95,96.0,4478.0,2fgfNXCWoW,Pitch-Size-Color-9,Pitch-Piano-L,Pitch-Piano-H,Speed-SP4-H,Speed-SP4-L,0
0,1.0,5001.0,4EYlfayMb2,Brightness-Amp-Affect-9,Affect-EB-L,Affect-EB-H,Shape-BK3-H,Shape-BK3-L,1
1,2.0,8009.0,4EYlfayMb2,Brightness-Amp-Affect-9,Amp-Hum-L,Amp-Hum-H,Pitch-Tone-L,Pitch-Tone-H,0
2,3.0,3981.0,4EYlfayMb2,Brightness-Amp-Affect-9,Brightness-Circles-L,Brightness-Circles-H,Affect-PD-H,Affect-PD-L,1
3,4.0,5064.0,4EYlfayMb2,Brightness-Amp-Affect-9,Amp-Hum-H,Amp-Hum-L,Affect-EB-L,Affect-EB-H,1
4,5.0,3829.0,4EYlfayMb2,Brightness-Amp-Affect-9,Color-RB-H,Color-RB-L,Brightness-Squares-L,Brightness-Squares-H,0
5,6.0,7077.0,4EYlfayMb2,Brightness-Amp-Affect-9,Amp-Piano-H,Amp-Piano-L,Speed-SP2-H,Speed-SP2-L,0
6,7.0,3758.0,4EYlfayMb2,Brightness-Amp-Affect-9,Color-RB-H,Color-RB-L,Brightness-Diamonds-H,Brightness-Diamonds-L,1
7,8.0,4061.0,4EYlfayMb2,Brightness-Amp-Affect-9,Affect-HS-H,Affect-HS-L,Speed-SP2-H,Speed-SP2-L,0
8,9.0,5732.0,4EYlfayMb2,Brightness-Amp-Affect-9,Affect-EB-L,Affect-EB-H,Amp-Hum-L,Amp-Hum-H,0
9,10.0,4924.0,4EYlfayMb2,Brightness-Amp-Affect-9,Pitch-Tone-L,Pitch-Tone-H,Brightness-Squares-H,Brightness-Squares-L,1
10,11.0,5669.0,4EYlfayMb2,Brightness-Amp-Affect-9,Color-RB-H,Color-RB-L,Amp-Tone-H,Amp-Tone-L,0
11,12.0,4287.0,4EYlfayMb2,Brightness-Amp-Affect-9,Shape-BK3-L,Shape-BK3-H,Affect-SC-L,Affect-SC-H,0
12,13.0,4686.0,4EYlfayMb2,Brightness-Amp-Affect-9,Amp-Hum-H,Amp-Hum-L,Size-Circles-H,Size-Circles-L,0
13,14.0,3251.0,4EYlfayMb2,Brightness-Amp-Affect-9,Brightness-Triangles-H,Brightness-Triangles-L,Color-RB-H,Color-RB-L,0
14,15.0,7663.0,4EYlfayMb2,Brightness-Amp-Affect-9,Pitch-Tone-L,Pitch-Tone-H,Amp-Tone-L,Amp-Tone-H,0
15,16.0,8334.0,4EYlfayMb2,Brightness-Amp-Affect-9,Shape-BK3-L,Shape-BK3-H,Brightness-Squares-L,Brightness-Squares-H,0
16,17.0,6559.0,4EYlfayMb2,Brightness-Amp-Affect-9,Affect-EB-H,Affect-EB-L,Noise-Hum-L,Noise-Hum-H,1
17,18.0,5177.0,4EYlfayMb2,Brightness-Amp-Affect-9,Brightness-Circles-L,Brightness-Circles-H,Amp-Pulse-H,Amp-Pulse-L,1
18,19.0,4046.0,4EYlfayMb2,Brightness-Amp-Affect-9,Brightness-Triangles-L,Brightness-Triangles-H,Speed-SP2-L,Speed-SP2-H,0
19,20.0,3601.0,4EYlfayMb2,Brightness-Amp-Affect-9,Brightness-Triangles-H,Brightness-Triangles-L,Affect-EB-L,Affect-EB-H,1
20,21.0,3885.0,4EYlfayMb2,Brightness-Amp-Affect-9,Affect-HS-L,Affect-HS-H,Color-RB-H,Color-RB-L,1
21,22.0,3823.0,4EYlfayMb2,Brightness-Amp-Affect-9,Affect-EB-L,Affect-EB-H,Speed-SP2-H,Speed-SP2-L,1
22,23.0,7667.0,4EYlfayMb2,Brightness-Amp-Affect-9,Brightness-Triangles-L,Brightness-Triangles-H,Noise-Hum-L,Noise-Hum-H,0
23,24.0,3227.0,4EYlfayMb2,Brightness-Amp-Affect-9,Brightness-Triangles-H,Brightness-Triangles-L,Shape-BK3-H,Shape-BK3-L,0
24,25.0,8959.0,4EYlfayMb2,Brightness-Amp-Affect-9,Brightness-Circles-H,Brightness-Circles-L,Speed-SP2-H,Speed-SP2-L,0
25,26.0,2981.0,4EYlfayMb2,Brightness-Amp-Affect-9,Size-Circles-L,Size-Circles-H,Brightness-Diamonds-L,Brightness-Diamonds-H,0
26,27.0,4072.0,4EYlfayMb2,Brightness-Amp-Affect-9,Affect-EB-L,Affect-EB-H,Brightness-Diamonds-H,Brightness-Diamonds-L,1
27,28.0,4996.0,4EYlfayMb2,Brightness-Amp-Affect-9,Amp-Hum-L,Amp-Hum-H,Shape-BK3-L,Shape-BK3-H,0
28,29.0,4268.0,4EYlfayMb2,Brightness-Amp-Affect-9,Shape-BK3-L,Shape-BK3-H,Affect-PD-H,Affect-PD-L,1
29,30.0,6521.0,4EYlfayMb2,Brightness-Amp-Affect-9,Brightness-Circles-H,Brightness-Circles-L,Pitch-Tone-H,Pitch-Tone-L,0
30,31.0,2971.0,4EYlfayMb2,Brightness-Amp-Affect-9,Affect-HS-L,Affect-HS-H,Size-Circles-L,Size-Circles-H,0
31,32.0,5218.0,4EYlfayMb2,Brightness-Amp-Affect-9,Affect-HS-H,Affect-HS-L,Amp-Hum-L,Amp-Hum-H,1
32,33.0,5904.0,4EYlfayMb2,Brightness-Amp-Affect-9,Affect-HS-H,Affect-HS-L,Shape-BK3-L,Shape-BK3-H,1
33,34.0,5521.0,4EYlfayMb2,Brightness-Amp-Affect-9,Amp-Piano-L,Amp-Piano-H,Color-RB-L,Color-RB-H,0
34,35.0,3155.0,4EYlfayMb2,Brightness-Amp-Affect-9,Size-Circles-L,Size-Circles-H,Affect-PD-L,Affect-PD-H,0
35,36.0,6864.0,4EYlfayMb2,Brightness-Amp-Affect-9,Speed-SP2-H,Speed-SP2-L,Brightness-Diamonds-L,Brightness-Diamonds-H,1
36,37.0,6901.0,4EYlfayMb2,Brightness-Amp-Affect-9,Speed-SP2-L,Speed-SP2-H,Brightness-Squares-H,Brightness-Squares-L,1
37,38.0,4284.0,4EYlfayMb2,Brightness-Amp-Affect-9,Color-RB-H,Color-RB-L,Affect-SC-H,Affect-SC-L,0
38,39.0,5592.0,4EYlfayMb2,Brightness-Amp-Affect-9,Brightness-Triangles-H,Brightness-Triangles-L,Amp-Hum-H,Amp-Hum-L,0
39,40.0,8692.0,4EYlfayMb2,Brightness-Amp-Affect-9,Amp-Piano-L,Amp-Piano-H,Noise-Hum-H,Noise-Hum-L,1
40,41.0,5067.0,4EYlfayMb2,Brightness-Amp-Affect-9,Amp-Hum-H,Amp-Hum-L,Color-RB-H,Color-RB-L,0
41,42.0,4374.0,4EYlfayMb2,Brightness-Amp-Affect-9,Shape-BK3-L,Shape-BK3-H,Brightness-Diamonds-H,Brightness-Diamonds-L,1
42,43.0,3713.0,4EYlfayMb2,Brightness-Amp-Affect-9,Affect-EB-H,Affect-EB-L,Brightness-Squares-L,Brightness-Squares-H,1
43,44.0,4721.0,4EYlfayMb2,Brightness-Amp-Affect-9,Affect-EB-H,Affect-EB-L,Size-Circles-L,Size-Circles-H,1
44,45.0,7037.0,4EYlfayMb2,Brightness-Amp-Affect-9,Amp-Hum-H,Amp-Hum-L,Affect-PD-H,Affect-PD-L,0
45,46.0,5065.0,4EYlfayMb2,Brightness-Amp-Affect-9,Shape-BK3-L,Shape-BK3-H,Amp-Pulse-H,Amp-Pulse-L,1
46,47.0,5961.0,4EYlfayMb2,Brightness-Amp-Affect-9,Size-Circles-L,Size-Circles-H,Affect-SC-H,Affect-SC-L,1
47,48.0,4665.0,4EYlfayMb2,Brightness-Amp-Affect-9,Affect-HS-L,Affect-HS-H,Pitch-Tone-H,Pitch-Tone-L,1
48,49.0,4735.0,4EYlfayMb2,Brightness-Amp-Affect-9,Size-Circles-H,Size-Circles-L,Amp-Tone-H,Amp-Tone-L,0
49,50.0,9347.0,4EYlfayMb2,Brightness-Amp-Affect-9,Amp-Piano-H,Amp-Piano-L,Pitch-Tone-H,Pitch-Tone-L,0
50,51.0,6078.0,4EYlfayMb2,Brightness-Amp-Affect-9,Speed-SP2-L,Speed-SP2-H,Amp-Pulse-H,Amp-Pulse-L,1
51,52.0,2426.0,4EYlfayMb2,Brightness-Amp-Affect-9,Brightness-Circles-L,Brightness-Circles-H,Affect-EB-L,Affect-EB-H,0
52,53.0,4687.0,4EYlfayMb2,Brightness-Amp-Affect-9,Shape-BK3-L,Shape-BK3-H,Amp-Tone-L,Amp-Tone-H,0
53,54.0,5165.0,4EYlfayMb2,Brightness-Amp-Affect-9,Affect-EB-H,Affect-EB-L,Pitch-Tone-H,Pitch-Tone-L,0
54,55.0,6101.0,4EYlfayMb2,Brightness-Amp-Affect-9,Amp-Hum-L,Amp-Hum-H,Brightness-Circles-H,Brightness-Circles-L,1
55,56.0,3895.0,4EYlfayMb2,Brightness-Amp-Affect-9,Affect-EB-L,Affect-EB-H,Brightness-Circles-L,Brightness-Circles-H,0
56,57.0,5472.0,4EYlfayMb2,Brightness-Amp-Affect-9,Color-RB-L,Color-RB-H,Amp-Pulse-L,Amp-Pulse-H,0
57,58.0,4456.0,4EYlfayMb2,Brightness-Amp-Affect-9,Affect-EB-H,Affect-EB-L,Amp-Pulse-L,Amp-Pulse-H,1
58,59.0,5236.0,4EYlfayMb2,Brightness-Amp-Affect-9,Amp-Piano-H,Amp-Piano-L,Shape-BK3-H,Shape-BK3-L,0
59,60.0,4435.0,4EYlfayMb2,Brightness-Amp-Affect-9,Noise-Hum-H,Noise-Hum-L,Brightness-Diamonds-L,Brightness-Diamonds-H,1
60,61.0,9544.0,4EYlfayMb2,Brightness-Amp-Affect-9,Amp-Hum-H,Amp-Hum-L,Noise-Hum-H,Noise-Hum-L,0
61,62.0,3900.0,4EYlfayMb2,Brightness-Amp-Affect-9,Brightness-Circles-L,Brightness-Circles-H,Amp-Hum-L,Amp-Hum-H,0
62,63.0,5665.0,4EYlfayMb2,Brightness-Amp-Affect-9,Amp-Piano-L,Amp-Piano-H,Size-Circles-L,Size-Circles-H,0
63,64.0,4286.0,4EYlfayMb2,Brightness-Amp-Affect-9,Affect-EB-H,Affect-EB-L,Color-RB-L,Color-RB-H,1
64,65.0,4409.0,4EYlfayMb2,Brightness-Amp-Affect-9,Amp-Hum-H,Amp-Hum-L,Brightness-Squares-L,Brightness-Squares-H,1
65,66.0,4393.0,4EYlfayMb2,Brightness-Amp-Affect-9,Noise-Hum-H,Noise-Hum-L,Brightness-Squares-H,Brightness-Squares-L,0
66,67.0,5911.0,4EYlfayMb2,Brightness-Amp-Affect-9,Noise-Hum-H,Noise-Hum-L,Affect-PD-L,Affect-PD-H,0
67,68.0,4783.0,4EYlfayMb2,Brightness-Amp-Affect-9,Affect-EB-H,Affect-EB-L,Amp-Tone-H,Amp-Tone-L,0
68,69.0,4497.0,4EYlfayMb2,Brightness-Amp-Affect-9,Size-Circles-H,Size-Circles-L,Amp-Pulse-L,Amp-Pulse-H,1
69,70.0,3761.0,4EYlfayMb2,Brightness-Amp-Affect-9,Color-RB-L,Color-RB-H,Affect-PD-L,Affect-PD-H,0
70,71.0,3480.0,4EYlfayMb2,Brightness-Amp-Affect-9,Brightness-Circles-L,Brightness-Circles-H,Shape-BK3-H,Shape-BK3-L,1
71,72.0,12038.0,4EYlfayMb2,Brightness-Amp-Affect-9,Noise-Hum-H,Noise-Hum-L,Amp-Pulse-L,Amp-Pulse-H,1
72,73.0,6833.0,4EYlfayMb2,Brightness-Amp-Affect-9,Affect-HS-L,Affect-HS-H,Noise-Hum-L,Noise-Hum-H,0
73,74.0,3428.0,4EYlfayMb2,Brightness-Amp-Affect-9,Size-Circles-L,Size-Circles-H,Brightness-Squares-H,Brightness-Squares-L,1
74,75.0,9808.0,4EYlfayMb2,Brightness-Amp-Affect-9,Pitch-Tone-H,Pitch-Tone-L,Amp-Pulse-H,Amp-Pulse-L,1
75,76.0,3317.0,4EYlfayMb2,Brightness-Amp-Affect-9,Brightness-Circles-L,Brightness-Circles-H,Color-RB-L,Color-RB-H,1
76,77.0,5147.0,4EYlfayMb2,Brightness-Amp-Affect-9,Pitch-Tone-L,Pitch-Tone-H,Brightness-Diamonds-L,Brightness-Diamonds-H,0
77,78.0,5228.0,4EYlfayMb2,Brightness-Amp-Affect-9,Noise-Hum-L,Noise-Hum-H,Affect-SC-H,Affect-SC-L,1
78,79.0,7054.0,4EYlfayMb2,Brightness-Amp-Affect-9,Brightness-Circles-H,Brightness-Circles-L,Noise-Hum-H,Noise-Hum-L,0
79,80.0,8554.0,4EYlfayMb2,Brightness-Amp-Affect-9,Speed-SP2-L,Speed-SP2-H,Amp-Tone-L,Amp-Tone-H,0
80,81.0,4048.0,4EYlfayMb2,Brightness-Amp-Affect-9,Brightness-Circles-H,Brightness-Circles-L,Size-Circles-L,Size-Circles-H,1
81,82.0,6365.0,4EYlfayMb2,Brightness-Amp-Affect-9,Pitch-Tone-L,Pitch-Tone-H,Affect-PD-L,Affect-PD-H,0
82,83.0,4398.0,4EYlfayMb2,Brightness-Amp-Affect-9,Speed-SP2-H,Speed-SP2-L,Affect-SC-L,Affect-SC-H,1
83,84.0,2348.0,4EYlfayMb2,Brightness-Amp-Affect-9,Affect-HS-H,Affect-HS-L,Brightness-Circles-H,Brightness-Circles-L,0
84,85.0,4671.0,4EYlfayMb2,Brightness-Amp-Affect-9,Pitch-Tone-H,Pitch-Tone-L,Affect-SC-H,Affect-SC-L,0
85,86.0,4719.0,4EYlfayMb2,Brightness-Amp-Affect-9,Amp-Piano-H,Amp-Piano-L,Brightness-Circles-H,Brightness-Circles-L,0
86,87.0,4094.0,4EYlfayMb2,Brightness-Amp-Affect-9,Speed-SP2-H,Speed-SP2-L,Affect-PD-H,Affect-PD-L,0
87,88.0,7258.0,4EYlfayMb2,Brightness-Amp-Affect-9,Noise-Hum-H,Noise-Hum-L,Amp-Tone-H,Amp-Tone-L,0
88,89.0,5064.0,4EYlfayMb2,Brightness-Amp-Affect-9,Amp-Piano-L,Amp-Piano-H,Affect-EB-L,Affect-EB-H,0
89,90.0,4784.0,4EYlfayMb2,Brightness-Amp-Affect-9,Amp-Hum-H,Amp-Hum-L,Affect-SC-L,Affect-SC-H,1
90,91.0,5140.0,4EYlfayMb2,Brightness-Amp-Affect-9,Amp-Hum-H,Amp-Hum-L,Brightness-Diamonds-H,Brightness-Diamonds-L,0
91,92.0,5364.0,4EYlfayMb2,Brightness-Amp-Affect-9,Amp-Hum-L,Amp-Hum-H,Speed-SP2-L,Speed-SP2-H,0
92,93.0,4912.0,4EYlfayMb2,Brightness-Amp-Affect-9,Brightness-Circles-H,Brightness-Circles-L,Amp-Tone-L,Amp-Tone-H,1
93,94.0,3612.0,4EYlfayMb2,Brightness-Amp-Affect-9,Brightness-Triangles-L,Brightness-Triangles-H,Size-Circles-H,Size-Circles-L,1
94,95.0,4300.0,4EYlfayMb2,Brightness-Amp-Affect-9,Brightness-Circles-L,Brightness-Circles-H,Affect-SC-L,Affect-SC-H,0
95,96.0,4420.0,4EYlfayMb2,Brightness-Amp-Affect-9,Brightness-Triangles-L,Brightness-Triangles-H,Pitch-Tone-L,Pitch-Tone-H,0
0,1.0,4604.0,5eNXA6XYSE,Noise-Brightness-Color-6,Shape-BK4-H,Shape-BK4-L,Color-RB-L,Color-RB-H,0
1,2.0,3948.0,5eNXA6XYSE,Noise-Brightness-Color-6,Speed-SP2-L,Speed-SP2-H,Brightness-Squares-H,Brightness-Squares-L,0
2,3.0,2263.0,5eNXA6XYSE,Noise-Brightness-Color-6,Brightness-Triangles-H,Brightness-Triangles-L,Shape-BK4-L,Shape-BK4-H,1
3,4.0,2660.0,5eNXA6XYSE,Noise-Brightness-Color-6,Brightness-Triangles-H,Brightness-Triangles-L,Color-RY-L,Color-RY-H,1
4,5.0,10267.0,5eNXA6XYSE,Noise-Brightness-Color-6,Noise-Piano-H,Noise-Piano-L,Color-YB-L,Color-YB-H,0
5,6.0,5767.0,5eNXA6XYSE,Noise-Brightness-Color-6,Color-RY-H,Color-RY-L,Brightness-Diamonds-H,Brightness-Diamonds-L,1
6,7.0,4209.0,5eNXA6XYSE,Noise-Brightness-Color-6,Brightness-Diamonds-H,Brightness-Diamonds-L,Amp-Piano-H,Amp-Piano-L,1
7,8.0,3602.0,5eNXA6XYSE,Noise-Brightness-Color-6,Brightness-Diamonds-H,Brightness-Diamonds-L,Affect-HS-L,Affect-HS-H,1
8,9.0,5454.0,5eNXA6XYSE,Noise-Brightness-Color-6,Affect-HS-H,Affect-HS-L,Noise-Tone-L,Noise-Tone-H,0
9,10.0,4474.0,5eNXA6XYSE,Noise-Brightness-Color-6,Noise-Hum-H,Noise-Hum-L,Affect-HS-H,Affect-HS-L,1
10,11.0,2796.0,5eNXA6XYSE,Noise-Brightness-Color-6,Color-RY-L,Color-RY-H,Size-Triangles-H,Size-Triangles-L,1
11,12.0,2316.0,5eNXA6XYSE,Noise-Brightness-Color-6,Shape-BK4-L,Shape-BK4-H,Brightness-Circles-H,Brightness-Circles-L,1
12,13.0,4698.0,5eNXA6XYSE,Noise-Brightness-Color-6,Noise-Hum-H,Noise-Hum-L,Size-Triangles-H,Size-Triangles-L,1
13,14.0,4604.0,5eNXA6XYSE,Noise-Brightness-Color-6,Brightness-Diamonds-L,Brightness-Diamonds-H,Noise-Tone-H,Noise-Tone-L,0
14,15.0,4682.0,5eNXA6XYSE,Noise-Brightness-Color-6,Color-RY-L,Color-RY-H,Pitch-Pulse-H,Pitch-Pulse-L,1
15,16.0,2931.0,5eNXA6XYSE,Noise-Brightness-Color-6,Size-Triangles-H,Size-Triangles-L,Color-RB-H,Color-RB-L,0
16,17.0,2082.0,5eNXA6XYSE,Noise-Brightness-Color-6,Size-Triangles-L,Size-Triangles-H,Brightness-Squares-H,Brightness-Squares-L,1
17,18.0,3896.0,5eNXA6XYSE,Noise-Brightness-Color-6,Brightness-Diamonds-L,Brightness-Diamonds-H,Speed-SP2-L,Speed-SP2-H,0
18,19.0,6231.0,5eNXA6XYSE,Noise-Brightness-Color-6,Brightness-Diamonds-L,Brightness-Diamonds-H,Pitch-Pulse-L,Pitch-Pulse-H,0
19,20.0,5625.0,5eNXA6XYSE,Noise-Brightness-Color-6,Noise-Pulse-L,Noise-Pulse-H,Shape-BK4-L,Shape-BK4-H,1
20,21.0,8210.0,5eNXA6XYSE,Noise-Brightness-Color-6,Color-RY-H,Color-RY-L,Amp-Piano-H,Amp-Piano-L,0
21,22.0,13045.0,5eNXA6XYSE,Noise-Brightness-Color-6,Pitch-Pulse-L,Pitch-Pulse-H,Noise-Piano-L,Noise-Piano-H,1
22,23.0,5412.0,5eNXA6XYSE,Noise-Brightness-Color-6,Noise-Pulse-H,Noise-Pulse-L,Affect-HS-H,Affect-HS-L,0
23,24.0,6977.0,5eNXA6XYSE,Noise-Brightness-Color-6,Speed-SP2-L,Speed-SP2-H,Noise-Piano-L,Noise-Piano-H,1
24,25.0,5777.0,5eNXA6XYSE,Noise-Brightness-Color-6,Pitch-Pulse-H,Pitch-Pulse-L,Color-YB-L,Color-YB-H,0
25,26.0,3823.0,5eNXA6XYSE,Noise-Brightness-Color-6,Affect-HS-H,Affect-HS-L,Brightness-Squares-L,Brightness-Squares-H,1
26,27.0,7590.0,5eNXA6XYSE,Noise-Brightness-Color-6,Noise-Hum-L,Noise-Hum-H,Speed-SP2-H,Speed-SP2-L,0
27,28.0,5318.0,5eNXA6XYSE,Noise-Brightness-Color-6,Noise-Piano-H,Noise-Piano-L,Brightness-Circles-L,Brightness-Circles-H,0
28,29.0,2332.0,5eNXA6XYSE,Noise-Brightness-Color-6,Size-Triangles-H,Size-Triangles-L,Color-YB-L,Color-YB-H,0
29,30.0,5381.0,5eNXA6XYSE,Noise-Brightness-Color-6,Noise-Pulse-H,Noise-Pulse-L,Color-RY-H,Color-RY-L,1
30,31.0,2744.0,5eNXA6XYSE,Noise-Brightness-Color-6,Color-RG-L,Color-RG-H,Size-Triangles-L,Size-Triangles-H,1
31,32.0,5626.0,5eNXA6XYSE,Noise-Brightness-Color-6,Noise-Hum-H,Noise-Hum-L,Color-RY-L,Color-RY-H,0
32,33.0,10045.0,5eNXA6XYSE,Noise-Brightness-Color-6,Noise-Pulse-H,Noise-Pulse-L,Amp-Piano-L,Amp-Piano-H,1
33,34.0,4017.0,5eNXA6XYSE,Noise-Brightness-Color-6,Color-RG-H,Color-RG-L,Shape-BK4-H,Shape-BK4-L,0
34,35.0,4378.0,5eNXA6XYSE,Noise-Brightness-Color-6,Color-RG-L,Color-RG-H,Pitch-Pulse-H,Pitch-Pulse-L,1
35,36.0,3742.0,5eNXA6XYSE,Noise-Brightness-Color-6,Brightness-Triangles-L,Brightness-Triangles-H,Size-Triangles-L,Size-Triangles-H,0
36,37.0,4989.0,5eNXA6XYSE,Noise-Brightness-Color-6,Affect-HS-H,Affect-HS-L,Brightness-Circles-H,Brightness-Circles-L,0
37,38.0,4139.0,5eNXA6XYSE,Noise-Brightness-Color-6,Size-Triangles-H,Size-Triangles-L,Noise-Piano-H,Noise-Piano-L,1
38,39.0,7256.0,5eNXA6XYSE,Noise-Brightness-Color-6,Noise-Pulse-L,Noise-Pulse-H,Pitch-Pulse-L,Pitch-Pulse-H,0
39,40.0,3805.0,5eNXA6XYSE,Noise-Brightness-Color-6,Brightness-Triangles-L,Brightness-Triangles-H,Speed-SP2-L,Speed-SP2-H,0
40,41.0,4487.0,5eNXA6XYSE,Noise-Brightness-Color-6,Color-RY-L,Color-RY-H,Noise-Piano-H,Noise-Piano-L,0
41,42.0,5622.0,5eNXA6XYSE,Noise-Brightness-Color-6,Noise-Hum-L,Noise-Hum-H,Shape-BK4-L,Shape-BK4-H,0
42,43.0,4639.0,5eNXA6XYSE,Noise-Brightness-Color-6,Brightness-Triangles-L,Brightness-Triangles-H,Pitch-Pulse-L,Pitch-Pulse-H,0
43,44.0,4921.0,5eNXA6XYSE,Noise-Brightness-Color-6,Size-Triangles-L,Size-Triangles-H,Noise-Tone-L,Noise-Tone-H,1
44,45.0,2947.0,5eNXA6XYSE,Noise-Brightness-Color-6,Brightness-Diamonds-L,Brightness-Diamonds-H,Color-RB-L,Color-RB-H,1
45,46.0,2562.0,5eNXA6XYSE,Noise-Brightness-Color-6,Color-RY-L,Color-RY-H,Brightness-Circles-H,Brightness-Circles-L,0
46,47.0,9039.0,5eNXA6XYSE,Noise-Brightness-Color-6,Amp-Piano-H,Amp-Piano-L,Color-RB-L,Color-RB-H,1
47,48.0,3241.0,5eNXA6XYSE,Noise-Brightness-Color-6,Brightness-Diamonds-H,Brightness-Diamonds-L,Shape-BK4-L,Shape-BK4-H,0
48,49.0,4420.0,5eNXA6XYSE,Noise-Brightness-Color-6,Pitch-Pulse-L,Pitch-Pulse-H,Brightness-Squares-H,Brightness-Squares-L,1
49,50.0,4783.0,5eNXA6XYSE,Noise-Brightness-Color-6,Color-RY-L,Color-RY-H,Noise-Tone-L,Noise-Tone-H,1
50,51.0,4288.0,5eNXA6XYSE,Noise-Brightness-Color-6,Brightness-Triangles-L,Brightness-Triangles-H,Noise-Piano-L,Noise-Piano-H,1
51,52.0,6866.0,5eNXA6XYSE,Noise-Brightness-Color-6,Noise-Pulse-H,Noise-Pulse-L,Size-Triangles-H,Size-Triangles-L,0
52,53.0,5788.0,5eNXA6XYSE,Noise-Brightness-Color-6,Noise-Piano-L,Noise-Piano-H,Color-RB-H,Color-RB-L,0
53,54.0,4362.0,5eNXA6XYSE,Noise-Brightness-Color-6,Amp-Piano-L,Amp-Piano-H,Brightness-Circles-H,Brightness-Circles-L,1
54,55.0,4422.0,5eNXA6XYSE,Noise-Brightness-Color-6,Brightness-Diamonds-L,Brightness-Diamonds-H,Noise-Piano-H,Noise-Piano-L,0
55,56.0,4651.0,5eNXA6XYSE,Noise-Brightness-Color-6,Pitch-Pulse-H,Pitch-Pulse-L,Color-RB-H,Color-RB-L,0
56,57.0,9187.0,5eNXA6XYSE,Noise-Brightness-Color-6,Noise-Hum-L,Noise-Hum-H,Pitch-Pulse-H,Pitch-Pulse-L,0
57,58.0,4130.0,5eNXA6XYSE,Noise-Brightness-Color-6,Brightness-Diamonds-H,Brightness-Diamonds-L,Color-YB-H,Color-YB-L,0
58,59.0,5073.0,5eNXA6XYSE,Noise-Brightness-Color-6,Shape-BK4-H,Shape-BK4-L,Noise-Tone-H,Noise-Tone-L,0
59,60.0,7554.0,5eNXA6XYSE,Noise-Brightness-Color-6,Amp-Piano-H,Amp-Piano-L,Noise-Tone-L,Noise-Tone-H,0
60,61.0,3971.0,5eNXA6XYSE,Noise-Brightness-Color-6,Color-RY-H,Color-RY-L,Brightness-Squares-L,Brightness-Squares-H,0
61,62.0,3971.0,5eNXA6XYSE,Noise-Brightness-Color-6,Speed-SP2-L,Speed-SP2-H,Color-YB-L,Color-YB-H,0
62,63.0,7555.0,5eNXA6XYSE,Noise-Brightness-Color-6,Brightness-Triangles-H,Brightness-Triangles-L,Amp-Piano-L,Amp-Piano-H,1
63,64.0,4383.0,5eNXA6XYSE,Noise-Brightness-Color-6,Affect-HS-H,Affect-HS-L,Noise-Piano-H,Noise-Piano-L,1
64,65.0,2846.0,5eNXA6XYSE,Noise-Brightness-Color-6,Color-RG-H,Color-RG-L,Brightness-Diamonds-H,Brightness-Diamonds-L,1
65,66.0,3247.0,5eNXA6XYSE,Noise-Brightness-Color-6,Color-RG-H,Color-RG-L,Affect-HS-L,Affect-HS-H,1
66,67.0,2711.0,5eNXA6XYSE,Noise-Brightness-Color-6,Affect-HS-L,Affect-HS-H,Color-RB-L,Color-RB-H,0
67,68.0,8512.0,5eNXA6XYSE,Noise-Brightness-Color-6,Amp-Piano-L,Amp-Piano-H,Brightness-Squares-L,Brightness-Squares-H,0
68,69.0,4808.0,5eNXA6XYSE,Noise-Brightness-Color-6,Brightness-Diamonds-H,Brightness-Diamonds-L,Color-RY-H,Color-RY-L,0
69,70.0,5044.0,5eNXA6XYSE,Noise-Brightness-Color-6,Brightness-Diamonds-H,Brightness-Diamonds-L,Noise-Piano-L,Noise-Piano-H,0
70,71.0,3259.0,5eNXA6XYSE,Noise-Brightness-Color-6,Color-RG-L,Color-RG-H,Speed-SP2-H,Speed-SP2-L,1
71,72.0,7507.0,5eNXA6XYSE,Noise-Brightness-Color-6,Noise-Hum-H,Noise-Hum-L,Amp-Piano-L,Amp-Piano-H,0
72,73.0,6617.0,5eNXA6XYSE,Noise-Brightness-Color-6,Pitch-Pulse-H,Pitch-Pulse-L,Noise-Tone-H,Noise-Tone-L,1
73,74.0,6527.0,5eNXA6XYSE,Noise-Brightness-Color-6,Amp-Piano-H,Amp-Piano-L,Noise-Piano-H,Noise-Piano-L,1
74,75.0,4609.0,5eNXA6XYSE,Noise-Brightness-Color-6,Pitch-Pulse-L,Pitch-Pulse-H,Brightness-Circles-L,Brightness-Circles-H,0
75,76.0,2270.0,5eNXA6XYSE,Noise-Brightness-Color-6,Affect-HS-L,Affect-HS-H,Color-YB-H,Color-YB-L,1
76,77.0,5150.0,5eNXA6XYSE,Noise-Brightness-Color-6,Noise-Pulse-L,Noise-Pulse-H,Brightness-Diamonds-L,Brightness-Diamonds-H,0
77,78.0,8188.0,5eNXA6XYSE,Noise-Brightness-Color-6,Amp-Piano-L,Amp-Piano-H,Color-YB-H,Color-YB-L,1
78,79.0,6537.0,5eNXA6XYSE,Noise-Brightness-Color-6,Shape-BK4-L,Shape-BK4-H,Noise-Piano-L,Noise-Piano-H,0
79,80.0,4553.0,5eNXA6XYSE,Noise-Brightness-Color-6,Color-RG-L,Color-RG-H,Noise-Piano-L,Noise-Piano-H,1
80,81.0,3583.0,5eNXA6XYSE,Noise-Brightness-Color-6,Brightness-Diamonds-L,Brightness-Diamonds-H,Size-Triangles-L,Size-Triangles-H,0
81,82.0,4924.0,5eNXA6XYSE,Noise-Brightness-Color-6,Noise-Hum-L,Noise-Hum-H,Brightness-Diamonds-H,Brightness-Diamonds-L,0
82,83.0,5781.0,5eNXA6XYSE,Noise-Brightness-Color-6,Color-RG-H,Color-RG-L,Amp-Piano-L,Amp-Piano-H,1
83,84.0,8475.0,5eNXA6XYSE,Noise-Brightness-Color-6,Noise-Pulse-L,Noise-Pulse-H,Speed-SP2-H,Speed-SP2-L,0
84,85.0,8384.0,5eNXA6XYSE,Noise-Brightness-Color-6,Size-Triangles-H,Size-Triangles-L,Brightness-Circles-L,Brightness-Circles-H,1
85,86.0,5060.0,5eNXA6XYSE,Noise-Brightness-Color-6,Color-RY-H,Color-RY-L,Shape-BK4-H,Shape-BK4-L,1
86,87.0,4323.0,5eNXA6XYSE,Noise-Brightness-Color-6,Color-RY-H,Color-RY-L,Noise-Piano-H,Noise-Piano-L,1
87,88.0,3152.0,5eNXA6XYSE,Noise-Brightness-Color-6,Speed-SP2-H,Speed-SP2-L,Color-RB-H,Color-RB-L,0
88,89.0,5227.0,5eNXA6XYSE,Noise-Brightness-Color-6,Speed-SP2-L,Speed-SP2-H,Noise-Tone-H,Noise-Tone-L,0
89,90.0,2074.0,5eNXA6XYSE,Noise-Brightness-Color-6,Shape-BK4-L,Shape-BK4-H,Brightness-Squares-L,Brightness-Squares-H,1
90,91.0,3626.0,5eNXA6XYSE,Noise-Brightness-Color-6,Brightness-Triangles-H,Brightness-Triangles-L,Affect-HS-H,Affect-HS-L,0
91,92.0,2468.0,5eNXA6XYSE,Noise-Brightness-Color-6,Color-RY-H,Color-RY-L,Affect-HS-L,Affect-HS-H,1
92,93.0,3991.0,5eNXA6XYSE,Noise-Brightness-Color-6,Color-RY-L,Color-RY-H,Speed-SP2-H,Speed-SP2-L,1
93,94.0,4538.0,5eNXA6XYSE,Noise-Brightness-Color-6,Noise-Piano-H,Noise-Piano-L,Brightness-Squares-H,Brightness-Squares-L,1
94,95.0,3439.0,5eNXA6XYSE,Noise-Brightness-Color-6,Speed-SP2-L,Speed-SP2-H,Brightness-Circles-L,Brightness-Circles-H,0
95,96.0,4656.0,5eNXA6XYSE,Noise-Brightness-Color-6,Shape-BK4-L,Shape-BK4-H,Color-YB-H,Color-YB-L,0
0,1.0,3535.0,5Iv1RE0roc,Brightness-Amp-Affect-7,Size-Circles-H,Size-Circles-L,Affect-HS-H,Affect-HS-L,0
1,2.0,5733.0,5Iv1RE0roc,Brightness-Amp-Affect-7,Affect-SC-L,Affect-SC-H,Noise-Tone-L,Noise-Tone-H,0
2,3.0,5038.0,5Iv1RE0roc,Brightness-Amp-Affect-7,Speed-SP2-L,Speed-SP2-H,Brightness-Circles-H,Brightness-Circles-L,0
3,4.0,13331.0,5Iv1RE0roc,Brightness-Amp-Affect-7,Amp-Hum-H,Amp-Hum-L,Affect-PD-L,Affect-PD-H,1
4,5.0,4198.0,5Iv1RE0roc,Brightness-Amp-Affect-7,Brightness-Triangles-H,Brightness-Triangles-L,Shape-BK4-H,Shape-BK4-L,0
5,6.0,9092.0,5Iv1RE0roc,Brightness-Amp-Affect-7,Pitch-Tone-L,Pitch-Tone-H,Amp-Pulse-L,Amp-Pulse-H,0
6,7.0,4717.0,5Iv1RE0roc,Brightness-Amp-Affect-7,Amp-Piano-H,Amp-Piano-L,Size-Circles-L,Size-Circles-H,1
7,8.0,8547.0,5Iv1RE0roc,Brightness-Amp-Affect-7,Pitch-Tone-L,Pitch-Tone-H,Amp-Tone-H,Amp-Tone-L,0
8,9.0,5292.0,5Iv1RE0roc,Brightness-Amp-Affect-7,Brightness-Squares-L,Brightness-Squares-H,Amp-Tone-H,Amp-Tone-L,1
9,10.0,3270.0,5Iv1RE0roc,Brightness-Amp-Affect-7,Color-RG-L,Color-RG-H,Brightness-Circles-L,Brightness-Circles-H,1
10,11.0,2702.0,5Iv1RE0roc,Brightness-Amp-Affect-7,Brightness-Squares-H,Brightness-Squares-L,Color-RG-H,Color-RG-L,1
11,12.0,4814.0,5Iv1RE0roc,Brightness-Amp-Affect-7,Affect-SC-L,Affect-SC-H,Color-RG-L,Color-RG-H,0
12,13.0,4941.0,5Iv1RE0roc,Brightness-Amp-Affect-7,Shape-BK4-H,Shape-BK4-L,Amp-Tone-H,Amp-Tone-L,0
13,14.0,2893.0,5Iv1RE0roc,Brightness-Amp-Affect-7,Brightness-Triangles-H,Brightness-Triangles-L,Color-RG-L,Color-RG-H,1
14,15.0,4052.0,5Iv1RE0roc,Brightness-Amp-Affect-7,Noise-Tone-L,Noise-Tone-H,Brightness-Diamonds-L,Brightness-Diamonds-H,0
15,16.0,4100.0,5Iv1RE0roc,Brightness-Amp-Affect-7,Color-RG-L,Color-RG-H,Amp-Pulse-H,Amp-Pulse-L,1
16,17.0,5109.0,5Iv1RE0roc,Brightness-Amp-Affect-7,Size-Circles-H,Size-Circles-L,Brightness-Diamonds-L,Brightness-Diamonds-H,1
17,18.0,5892.0,5Iv1RE0roc,Brightness-Amp-Affect-7,Speed-SP2-H,Speed-SP2-L,Amp-Pulse-L,Amp-Pulse-H,0
18,19.0,5134.0,5Iv1RE0roc,Brightness-Amp-Affect-7,Speed-SP2-L,Speed-SP2-H,Affect-HS-L,Affect-HS-H,0
19,20.0,4812.0,5Iv1RE0roc,Brightness-Amp-Affect-7,Affect-SC-H,Affect-SC-L,Amp-Tone-H,Amp-Tone-L,0
20,21.0,3965.0,5Iv1RE0roc,Brightness-Amp-Affect-7,Affect-PD-L,Affect-PD-H,Brightness-Circles-L,Brightness-Circles-H,0
21,22.0,3629.0,5Iv1RE0roc,Brightness-Amp-Affect-7,Brightness-Triangles-L,Brightness-Triangles-H,Noise-Tone-L,Noise-Tone-H,0
22,23.0,3861.0,5Iv1RE0roc,Brightness-Amp-Affect-7,Color-RG-H,Color-RG-L,Affect-PD-L,Affect-PD-H,0
23,24.0,3084.0,5Iv1RE0roc,Brightness-Amp-Affect-7,Shape-BK4-H,Shape-BK4-L,Brightness-Diamonds-H,Brightness-Diamonds-L,0
24,25.0,6332.0,5Iv1RE0roc,Brightness-Amp-Affect-7,Amp-Hum-L,Amp-Hum-H,Pitch-Tone-H,Pitch-Tone-L,1
25,26.0,3461.0,5Iv1RE0roc,Brightness-Amp-Affect-7,Brightness-Triangles-H,Brightness-Triangles-L,Amp-Tone-L,Amp-Tone-H,1
26,27.0,6572.0,5Iv1RE0roc,Brightness-Amp-Affect-7,Brightness-Triangles-H,Brightness-Triangles-L,Affect-PD-H,Affect-PD-L,0
27,28.0,2565.0,5Iv1RE0roc,Brightness-Amp-Affect-7,Brightness-Squares-H,Brightness-Squares-L,Affect-HS-L,Affect-HS-H,1
28,29.0,4878.0,5Iv1RE0roc,Brightness-Amp-Affect-7,Affect-SC-H,Affect-SC-L,Shape-BK4-H,Shape-BK4-L,0
29,30.0,5437.0,5Iv1RE0roc,Brightness-Amp-Affect-7,Brightness-Squares-H,Brightness-Squares-L,Amp-Pulse-L,Amp-Pulse-H,1
30,31.0,4458.0,5Iv1RE0roc,Brightness-Amp-Affect-7,Amp-Hum-H,Amp-Hum-L,Size-Circles-H,Size-Circles-L,0
31,32.0,2286.0,5Iv1RE0roc,Brightness-Amp-Affect-7,Brightness-Squares-L,Brightness-Squares-H,Affect-PD-H,Affect-PD-L,1
32,33.0,2581.0,5Iv1RE0roc,Brightness-Amp-Affect-7,Shape-BK4-H,Shape-BK4-L,Brightness-Circles-L,Brightness-Circles-H,1
33,34.0,3957.0,5Iv1RE0roc,Brightness-Amp-Affect-7,Amp-Piano-L,Amp-Piano-H,Brightness-Squares-L,Brightness-Squares-H,0
34,35.0,8627.0,5Iv1RE0roc,Brightness-Amp-Affect-7,Amp-Piano-L,Amp-Piano-H,Pitch-Tone-L,Pitch-Tone-H,0
35,36.0,6077.0,5Iv1RE0roc,Brightness-Amp-Affect-7,Pitch-Tone-L,Pitch-Tone-H,Brightness-Diamonds-L,Brightness-Diamonds-H,0
36,37.0,4348.0,5Iv1RE0roc,Brightness-Amp-Affect-7,Noise-Tone-L,Noise-Tone-H,Affect-PD-L,Affect-PD-H,1
37,38.0,6859.0,5Iv1RE0roc,Brightness-Amp-Affect-7,Amp-Hum-H,Amp-Hum-L,Noise-Tone-L,Noise-Tone-H,1
38,39.0,4637.0,5Iv1RE0roc,Brightness-Amp-Affect-7,Affect-EB-L,Affect-EB-H,Pitch-Tone-H,Pitch-Tone-L,1
39,40.0,3924.0,5Iv1RE0roc,Brightness-Amp-Affect-7,Brightness-Squares-L,Brightness-Squares-H,Pitch-Tone-H,Pitch-Tone-L,0
40,41.0,3229.0,5Iv1RE0roc,Brightness-Amp-Affect-7,Color-RG-L,Color-RG-H,Affect-HS-H,Affect-HS-L,0
41,42.0,5157.0,5Iv1RE0roc,Brightness-Amp-Affect-7,Size-Circles-H,Size-Circles-L,Amp-Pulse-H,Amp-Pulse-L,0
42,43.0,6155.0,5Iv1RE0roc,Brightness-Amp-Affect-7,Affect-EB-L,Affect-EB-H,Noise-Tone-H,Noise-Tone-L,0
43,44.0,3351.0,5Iv1RE0roc,Brightness-Amp-Affect-7,Affect-EB-H,Affect-EB-L,Brightness-Squares-H,Brightness-Squares-L,0
44,45.0,5158.0,5Iv1RE0roc,Brightness-Amp-Affect-7,Brightness-Squares-L,Brightness-Squares-H,Speed-SP2-L,Speed-SP2-H,0
45,46.0,3501.0,5Iv1RE0roc,Brightness-Amp-Affect-7,Affect-EB-L,Affect-EB-H,Color-RG-H,Color-RG-L,0
46,47.0,2518.0,5Iv1RE0roc,Brightness-Amp-Affect-7,Brightness-Squares-H,Brightness-Squares-L,Shape-BK4-L,Shape-BK4-H,0
47,48.0,5429.0,5Iv1RE0roc,Brightness-Amp-Affect-7,Amp-Tone-L,Amp-Tone-H,Affect-PD-H,Affect-PD-L,1
48,49.0,4445.0,5Iv1RE0roc,Brightness-Amp-Affect-7,Noise-Tone-H,Noise-Tone-L,Brightness-Circles-H,Brightness-Circles-L,0
49,50.0,8412.0,5Iv1RE0roc,Brightness-Amp-Affect-7,Amp-Piano-H,Amp-Piano-L,Affect-PD-L,Affect-PD-H,0
50,51.0,3421.0,5Iv1RE0roc,Brightness-Amp-Affect-7,Affect-EB-H,Affect-EB-L,Speed-SP2-H,Speed-SP2-L,0
51,52.0,3981.0,5Iv1RE0roc,Brightness-Amp-Affect-7,Affect-SC-H,Affect-SC-L,Brightness-Squares-H,Brightness-Squares-L,1
52,53.0,4461.0,5Iv1RE0roc,Brightness-Amp-Affect-7,Brightness-Squares-L,Brightness-Squares-H,Noise-Tone-L,Noise-Tone-H,1
53,54.0,2990.0,5Iv1RE0roc,Brightness-Amp-Affect-7,Speed-SP2-H,Speed-SP2-L,Brightness-Diamonds-L,Brightness-Diamonds-H,1
54,55.0,4397.0,5Iv1RE0roc,Brightness-Amp-Affect-7,Amp-Hum-L,Amp-Hum-H,Speed-SP2-L,Speed-SP2-H,0
55,56.0,11379.0,5Iv1RE0roc,Brightness-Amp-Affect-7,Amp-Piano-H,Amp-Piano-L,Noise-Tone-H,Noise-Tone-L,0
56,57.0,3765.0,5Iv1RE0roc,Brightness-Amp-Affect-7,Brightness-Triangles-L,Brightness-Triangles-H,Speed-SP2-L,Speed-SP2-H,0
57,58.0,4814.0,5Iv1RE0roc,Brightness-Amp-Affect-7,Affect-PD-L,Affect-PD-H,Brightness-Diamonds-H,Brightness-Diamonds-L,1
58,59.0,4549.0,5Iv1RE0roc,Brightness-Amp-Affect-7,Pitch-Tone-H,Pitch-Tone-L,Affect-HS-H,Affect-HS-L,0
59,60.0,4685.0,5Iv1RE0roc,Brightness-Amp-Affect-7,Size-Circles-H,Size-Circles-L,Amp-Tone-L,Amp-Tone-H,1
60,61.0,4165.0,5Iv1RE0roc,Brightness-Amp-Affect-7,Size-Circles-L,Size-Circles-H,Brightness-Circles-H,Brightness-Circles-L,1
61,62.0,4556.0,5Iv1RE0roc,Brightness-Amp-Affect-7,Amp-Hum-L,Amp-Hum-H,Brightness-Squares-H,Brightness-Squares-L,1
62,63.0,9318.0,5Iv1RE0roc,Brightness-Amp-Affect-7,Brightness-Triangles-L,Brightness-Triangles-H,Size-Circles-L,Size-Circles-H,0
63,64.0,2990.0,5Iv1RE0roc,Brightness-Amp-Affect-7,Affect-EB-H,Affect-EB-L,Shape-BK4-H,Shape-BK4-L,0
64,65.0,2518.0,5Iv1RE0roc,Brightness-Amp-Affect-7,Brightness-Squares-H,Brightness-Squares-L,Affect-PD-L,Affect-PD-H,1
65,66.0,5780.0,5Iv1RE0roc,Brightness-Amp-Affect-7,Amp-Tone-H,Amp-Tone-L,Brightness-Diamonds-H,Brightness-Diamonds-L,0
66,67.0,2542.0,5Iv1RE0roc,Brightness-Amp-Affect-7,Shape-BK4-H,Shape-BK4-L,Affect-HS-L,Affect-HS-H,1
67,68.0,3269.0,5Iv1RE0roc,Brightness-Amp-Affect-7,Affect-EB-L,Affect-EB-H,Size-Circles-H,Size-Circles-L,1
68,69.0,2366.0,5Iv1RE0roc,Brightness-Amp-Affect-7,Affect-SC-L,Affect-SC-H,Size-Circles-H,Size-Circles-L,1
69,70.0,5557.0,5Iv1RE0roc,Brightness-Amp-Affect-7,Amp-Piano-L,Amp-Piano-H,Speed-SP2-L,Speed-SP2-H,0
70,71.0,2429.0,5Iv1RE0roc,Brightness-Amp-Affect-7,Size-Circles-L,Size-Circles-H,Affect-PD-L,Affect-PD-H,0
71,72.0,4196.0,5Iv1RE0roc,Brightness-Amp-Affect-7,Amp-Piano-L,Amp-Piano-H,Shape-BK4-H,Shape-BK4-L,1
72,73.0,3899.0,5Iv1RE0roc,Brightness-Amp-Affect-7,Brightness-Squares-H,Brightness-Squares-L,Amp-Tone-H,Amp-Tone-L,0
73,74.0,4749.0,5Iv1RE0roc,Brightness-Amp-Affect-7,Amp-Hum-H,Amp-Hum-L,Color-RG-L,Color-RG-H,0
74,75.0,4180.0,5Iv1RE0roc,Brightness-Amp-Affect-7,Affect-PD-L,Affect-PD-H,Amp-Pulse-H,Amp-Pulse-L,1
75,76.0,4348.0,5Iv1RE0roc,Brightness-Amp-Affect-7,Noise-Tone-L,Noise-Tone-H,Affect-HS-H,Affect-HS-L,1
76,77.0,4012.0,5Iv1RE0roc,Brightness-Amp-Affect-7,Pitch-Tone-H,Pitch-Tone-L,Brightness-Circles-H,Brightness-Circles-L,1
77,78.0,3773.0,5Iv1RE0roc,Brightness-Amp-Affect-7,Brightness-Triangles-L,Brightness-Triangles-H,Pitch-Tone-H,Pitch-Tone-L,1
78,79.0,7612.0,5Iv1RE0roc,Brightness-Amp-Affect-7,Affect-SC-L,Affect-SC-H,Pitch-Tone-L,Pitch-Tone-H,0
79,80.0,4308.0,5Iv1RE0roc,Brightness-Amp-Affect-7,Amp-Tone-L,Amp-Tone-H,Affect-HS-L,Affect-HS-H,0
80,81.0,3398.0,5Iv1RE0roc,Brightness-Amp-Affect-7,Amp-Tone-L,Amp-Tone-H,Brightness-Circles-L,Brightness-Circles-H,0
81,82.0,3925.0,5Iv1RE0roc,Brightness-Amp-Affect-7,Shape-BK4-L,Shape-BK4-H,Affect-PD-H,Affect-PD-L,0
82,83.0,3956.0,5Iv1RE0roc,Brightness-Amp-Affect-7,Affect-EB-H,Affect-EB-L,Amp-Tone-L,Amp-Tone-H,1
83,84.0,6021.0,5Iv1RE0roc,Brightness-Amp-Affect-7,Amp-Hum-L,Amp-Hum-H,Shape-BK4-H,Shape-BK4-L,1
84,85.0,10381.0,5Iv1RE0roc,Brightness-Amp-Affect-7,Amp-Piano-H,Amp-Piano-L,Color-RG-L,Color-RG-H,0
85,86.0,3907.0,5Iv1RE0roc,Brightness-Amp-Affect-7,Shape-BK4-H,Shape-BK4-L,Amp-Pulse-L,Amp-Pulse-H,1
86,87.0,3788.0,5Iv1RE0roc,Brightness-Amp-Affect-7,Pitch-Tone-L,Pitch-Tone-H,Affect-PD-L,Affect-PD-H,0
87,88.0,3149.0,5Iv1RE0roc,Brightness-Amp-Affect-7,Affect-PD-L,Affect-PD-H,Amp-Tone-L,Amp-Tone-H,0
88,89.0,5921.0,5Iv1RE0roc,Brightness-Amp-Affect-7,Noise-Tone-H,Noise-Tone-L,Amp-Pulse-H,Amp-Pulse-L,1
89,90.0,3716.0,5Iv1RE0roc,Brightness-Amp-Affect-7,Color-RG-H,Color-RG-L,Amp-Tone-L,Amp-Tone-H,1
90,91.0,2751.0,5Iv1RE0roc,Brightness-Amp-Affect-7,Brightness-Squares-L,Brightness-Squares-H,Size-Circles-L,Size-Circles-H,0
91,92.0,3229.0,5Iv1RE0roc,Brightness-Amp-Affect-7,Affect-SC-H,Affect-SC-L,Speed-SP2-H,Speed-SP2-L,0
92,93.0,2845.0,5Iv1RE0roc,Brightness-Amp-Affect-7,Color-RG-H,Color-RG-L,Brightness-Diamonds-H,Brightness-Diamonds-L,1
93,94.0,3757.0,5Iv1RE0roc,Brightness-Amp-Affect-7,Speed-SP2-H,Speed-SP2-L,Affect-PD-H,Affect-PD-L,1
94,95.0,5468.0,5Iv1RE0roc,Brightness-Amp-Affect-7,Noise-Tone-H,Noise-Tone-L,Amp-Tone-L,Amp-Tone-H,1
95,96.0,4348.0,5Iv1RE0roc,Brightness-Amp-Affect-7,Speed-SP2-H,Speed-SP2-L,Amp-Tone-H,Amp-Tone-L,0
0,1.0,20240.0,5P5Px641Uv,Noise-Shape-Speed-4,Size-Squares-H,Size-Squares-L,Speed-SP1-L,Speed-SP1-H,1
1,2.0,8666.0,5P5Px641Uv,Noise-Shape-Speed-4,Pitch-Piano-L,Pitch-Piano-H,Speed-SP1-L,Speed-SP1-H,0
2,3.0,6912.0,5P5Px641Uv,Noise-Shape-Speed-4,Color-RY-H,Color-RY-L,Noise-Hum-L,Noise-Hum-H,1
3,4.0,9514.0,5P5Px641Uv,Noise-Shape-Speed-4,Noise-Pulse-L,Noise-Pulse-H,Size-Squares-H,Size-Squares-L,0
4,5.0,11467.0,5P5Px641Uv,Noise-Shape-Speed-4,Color-RY-H,Color-RY-L,Speed-SP4-H,Speed-SP4-L,1
5,6.0,6776.0,5P5Px641Uv,Noise-Shape-Speed-4,Affect-EB-H,Affect-EB-L,Speed-SP1-H,Speed-SP1-L,0
6,7.0,6825.0,5P5Px641Uv,Noise-Shape-Speed-4,Brightness-Diamonds-L,Brightness-Diamonds-H,Shape-BK3-L,Shape-BK3-H,1
7,8.0,8190.0,5P5Px641Uv,Noise-Shape-Speed-4,Speed-SP1-H,Speed-SP1-L,Shape-BK2-H,Shape-BK2-L,0
8,9.0,4914.0,5P5Px641Uv,Noise-Shape-Speed-4,Speed-SP3-L,Speed-SP3-H,Affect-EB-H,Affect-EB-L,1
9,10.0,4864.0,5P5Px641Uv,Noise-Shape-Speed-4,Color-RY-H,Color-RY-L,Shape-BK2-L,Shape-BK2-H,1
10,11.0,17628.0,5P5Px641Uv,Noise-Shape-Speed-4,Shape-BK1-L,Shape-BK1-H,Color-RY-L,Color-RY-H,0
11,12.0,5830.0,5P5Px641Uv,Noise-Shape-Speed-4,Speed-SP3-H,Speed-SP3-L,Pitch-Piano-L,Pitch-Piano-H,1
12,13.0,8629.0,5P5Px641Uv,Noise-Shape-Speed-4,Amp-Piano-H,Amp-Piano-L,Speed-SP1-H,Speed-SP1-L,0
13,14.0,6941.0,5P5Px641Uv,Noise-Shape-Speed-4,Noise-Tone-H,Noise-Tone-L,Speed-SP1-H,Speed-SP1-L,0
14,15.0,12958.0,5P5Px641Uv,Noise-Shape-Speed-4,Amp-Piano-H,Amp-Piano-L,Noise-Hum-L,Noise-Hum-H,1
15,16.0,5399.0,5P5Px641Uv,Noise-Shape-Speed-4,Speed-SP2-L,Speed-SP2-H,Brightness-Diamonds-H,Brightness-Diamonds-L,1
16,17.0,5292.0,5P5Px641Uv,Noise-Shape-Speed-4,Noise-Tone-L,Noise-Tone-H,Color-RY-L,Color-RY-H,0
17,18.0,5683.0,5P5Px641Uv,Noise-Shape-Speed-4,Brightness-Diamonds-L,Brightness-Diamonds-H,Noise-Hum-H,Noise-Hum-L,0
18,19.0,5262.0,5P5Px641Uv,Noise-Shape-Speed-4,Speed-SP3-H,Speed-SP3-L,Noise-Tone-L,Noise-Tone-H,1
19,20.0,5801.0,5P5Px641Uv,Noise-Shape-Speed-4,Size-Squares-L,Size-Squares-H,Noise-Hum-L,Noise-Hum-H,0
20,21.0,4455.0,5P5Px641Uv,Noise-Shape-Speed-4,Shape-BK1-L,Shape-BK1-H,Affect-EB-L,Affect-EB-H,0
21,22.0,52864.0,5P5Px641Uv,Noise-Shape-Speed-4,Speed-SP2-L,Speed-SP2-H,Amp-Piano-L,Amp-Piano-H,0
22,23.0,5607.0,5P5Px641Uv,Noise-Shape-Speed-4,Shape-BK1-H,Shape-BK1-L,Pitch-Piano-H,Pitch-Piano-L,0
23,24.0,5224.0,5P5Px641Uv,Noise-Shape-Speed-4,Pitch-Piano-H,Pitch-Piano-L,Speed-SP4-H,Speed-SP4-L,0
24,25.0,6026.0,5P5Px641Uv,Noise-Shape-Speed-4,Shape-BK2-H,Shape-BK2-L,Noise-Piano-L,Noise-Piano-H,1
25,26.0,4593.0,5P5Px641Uv,Noise-Shape-Speed-4,Speed-SP2-H,Speed-SP2-L,Size-Squares-H,Size-Squares-L,0
26,27.0,12522.0,5P5Px641Uv,Noise-Shape-Speed-4,Noise-Pulse-L,Noise-Pulse-H,Affect-EB-L,Affect-EB-H,1
27,28.0,5235.0,5P5Px641Uv,Noise-Shape-Speed-4,Speed-SP2-H,Speed-SP2-L,Color-RY-L,Color-RY-H,0
28,29.0,9439.0,5P5Px641Uv,Noise-Shape-Speed-4,Pitch-Piano-H,Pitch-Piano-L,Noise-Piano-L,Noise-Piano-H,1
29,30.0,5263.0,5P5Px641Uv,Noise-Shape-Speed-4,Color-RY-L,Color-RY-H,Noise-Piano-H,Noise-Piano-L,1
30,31.0,9060.0,5P5Px641Uv,Noise-Shape-Speed-4,Noise-Tone-H,Noise-Tone-L,Shape-BK2-H,Shape-BK2-L,0
31,32.0,3947.0,5P5Px641Uv,Noise-Shape-Speed-4,Affect-EB-H,Affect-EB-L,Speed-SP4-L,Speed-SP4-H,1
32,33.0,5538.0,5P5Px641Uv,Noise-Shape-Speed-4,Amp-Piano-L,Amp-Piano-H,Speed-SP4-L,Speed-SP4-H,0
33,34.0,5732.0,5P5Px641Uv,Noise-Shape-Speed-4,Shape-BK2-H,Shape-BK2-L,Noise-Hum-H,Noise-Hum-L,0
34,35.0,7821.0,5P5Px641Uv,Noise-Shape-Speed-4,Speed-SP2-H,Speed-SP2-L,Noise-Tone-L,Noise-Tone-H,1
35,36.0,4940.0,5P5Px641Uv,Noise-Shape-Speed-4,Noise-Tone-L,Noise-Tone-H,Speed-SP1-L,Speed-SP1-H,0
36,37.0,6152.0,5P5Px641Uv,Noise-Shape-Speed-4,Noise-Tone-L,Noise-Tone-H,Shape-BK3-L,Shape-BK3-H,0
37,38.0,3148.0,5P5Px641Uv,Noise-Shape-Speed-4,Shape-BK1-H,Shape-BK1-L,Brightness-Diamonds-H,Brightness-Diamonds-L,1
38,39.0,5868.0,5P5Px641Uv,Noise-Shape-Speed-4,Amp-Piano-L,Amp-Piano-H,Shape-BK2-L,Shape-BK2-H,0
39,40.0,4661.0,5P5Px641Uv,Noise-Shape-Speed-4,Brightness-Diamonds-H,Brightness-Diamonds-L,Speed-SP1-H,Speed-SP1-L,1
40,41.0,3110.0,5P5Px641Uv,Noise-Shape-Speed-4,Speed-SP3-L,Speed-SP3-H,Brightness-Diamonds-L,Brightness-Diamonds-H,1
41,42.0,4903.0,5P5Px641Uv,Noise-Shape-Speed-4,Noise-Tone-H,Noise-Tone-L,Shape-BK2-H,Shape-BK2-L,0
42,43.0,5097.0,5P5Px641Uv,Noise-Shape-Speed-4,Noise-Tone-L,Noise-Tone-H,Size-Squares-H,Size-Squares-L,0
43,44.0,2953.0,5P5Px641Uv,Noise-Shape-Speed-4,Brightness-Diamonds-H,Brightness-Diamonds-L,Speed-SP4-L,Speed-SP4-H,0
44,45.0,5391.0,5P5Px641Uv,Noise-Shape-Speed-4,Amp-Piano-H,Amp-Piano-L,Shape-BK3-H,Shape-BK3-L,0
45,46.0,6055.0,5P5Px641Uv,Noise-Shape-Speed-4,Speed-SP1-L,Speed-SP1-H,Noise-Piano-L,Noise-Piano-H,0
46,47.0,12640.0,5P5Px641Uv,Noise-Shape-Speed-4,Noise-Pulse-H,Noise-Pulse-L,Pitch-Piano-H,Pitch-Piano-L,0
47,48.0,4729.0,5P5Px641Uv,Noise-Shape-Speed-4,Shape-BK1-H,Shape-BK1-L,Speed-SP1-L,Speed-SP1-H,1
48,49.0,3968.0,5P5Px641Uv,Noise-Shape-Speed-4,Size-Squares-H,Size-Squares-L,Shape-BK2-L,Shape-BK2-H,1
49,50.0,10640.0,5P5Px641Uv,Noise-Shape-Speed-4,Noise-Pulse-L,Noise-Pulse-H,Amp-Piano-H,Amp-Piano-L,1
50,51.0,73256.0,5P5Px641Uv,Noise-Shape-Speed-4,Brightness-Diamonds-L,Brightness-Diamonds-H,Shape-BK2-H,Shape-BK2-L,0
51,52.0,5706.0,5P5Px641Uv,Noise-Shape-Speed-4,Noise-Pulse-H,Noise-Pulse-L,Shape-BK2-H,Shape-BK2-L,0
52,53.0,4885.0,5P5Px641Uv,Noise-Shape-Speed-4,Shape-BK4-L,Shape-BK4-H,Amp-Piano-L,Amp-Piano-H,0
53,54.0,6007.0,5P5Px641Uv,Noise-Shape-Speed-4,Noise-Tone-L,Noise-Tone-H,Affect-EB-H,Affect-EB-L,1
54,55.0,6885.0,5P5Px641Uv,Noise-Shape-Speed-4,Speed-SP2-L,Speed-SP2-H,Affect-EB-L,Affect-EB-H,0
55,56.0,4682.0,5P5Px641Uv,Noise-Shape-Speed-4,Affect-EB-L,Affect-EB-H,Shape-BK2-L,Shape-BK2-H,0
56,57.0,2368.0,5P5Px641Uv,Noise-Shape-Speed-4,Speed-SP3-L,Speed-SP3-H,Shape-BK2-L,Shape-BK2-H,0
57,58.0,4466.0,5P5Px641Uv,Noise-Shape-Speed-4,Speed-SP1-L,Speed-SP1-H,Noise-Hum-H,Noise-Hum-L,1
58,59.0,2837.0,5P5Px641Uv,Noise-Shape-Speed-4,Shape-BK2-L,Shape-BK2-H,Speed-SP1-H,Speed-SP1-L,1
59,60.0,3715.0,5P5Px641Uv,Noise-Shape-Speed-4,Shape-BK4-H,Shape-BK4-L,Brightness-Diamonds-L,Brightness-Diamonds-H,0
60,61.0,5400.0,5P5Px641Uv,Noise-Shape-Speed-4,Noise-Pulse-H,Noise-Pulse-L,Brightness-Diamonds-H,Brightness-Diamonds-L,1
61,62.0,6210.0,5P5Px641Uv,Noise-Shape-Speed-4,Noise-Tone-L,Noise-Tone-H,Amp-Piano-L,Amp-Piano-H,0
62,63.0,5549.0,5P5Px641Uv,Noise-Shape-Speed-4,Speed-SP1-H,Speed-SP1-L,Shape-BK3-L,Shape-BK3-H,1
63,64.0,6983.0,5P5Px641Uv,Noise-Shape-Speed-4,Size-Squares-L,Size-Squares-H,Noise-Piano-H,Noise-Piano-L,1
64,65.0,22457.0,5P5Px641Uv,Noise-Shape-Speed-4,Shape-BK4-L,Shape-BK4-H,Size-Squares-L,Size-Squares-H,0
65,66.0,3413.0,5P5Px641Uv,Noise-Shape-Speed-4,Shape-BK4-H,Shape-BK4-L,Speed-SP1-H,Speed-SP1-L,0
66,67.0,2610.0,5P5Px641Uv,Noise-Shape-Speed-4,Shape-BK2-L,Shape-BK2-H,Speed-SP4-L,Speed-SP4-H,0
67,68.0,6418.0,5P5Px641Uv,Noise-Shape-Speed-4,Pitch-Piano-L,Pitch-Piano-H,Shape-BK2-H,Shape-BK2-L,1
68,69.0,3733.0,5P5Px641Uv,Noise-Shape-Speed-4,Shape-BK1-L,Shape-BK1-H,Size-Squares-L,Size-Squares-H,0
69,70.0,4447.0,5P5Px641Uv,Noise-Shape-Speed-4,Shape-BK4-L,Shape-BK4-H,Affect-EB-H,Affect-EB-L,1
70,71.0,5226.0,5P5Px641Uv,Noise-Shape-Speed-4,Shape-BK4-H,Shape-BK4-L,Noise-Tone-H,Noise-Tone-L,0
71,72.0,4962.0,5P5Px641Uv,Noise-Shape-Speed-4,Pitch-Piano-L,Pitch-Piano-H,Shape-BK3-L,Shape-BK3-H,0
72,73.0,9089.0,5P5Px641Uv,Noise-Shape-Speed-4,Noise-Tone-H,Noise-Tone-L,Pitch-Piano-H,Pitch-Piano-L,0
73,74.0,150719.0,5P5Px641Uv,Noise-Shape-Speed-4,Shape-BK4-L,Shape-BK4-H,Color-RY-H,Color-RY-L,1
74,75.0,5332.0,5P5Px641Uv,Noise-Shape-Speed-4,Speed-SP3-L,Speed-SP3-H,Amp-Piano-H,Amp-Piano-L,1
75,76.0,5784.0,5P5Px641Uv,Noise-Shape-Speed-4,Affect-EB-H,Affect-EB-L,Shape-BK3-H,Shape-BK3-L,0
76,77.0,3028.0,5P5Px641Uv,Noise-Shape-Speed-4,Speed-SP2-L,Speed-SP2-H,Shape-BK2-L,Shape-BK2-H,0
77,78.0,5178.0,5P5Px641Uv,Noise-Shape-Speed-4,Size-Squares-L,Size-Squares-H,Speed-SP4-H,Speed-SP4-L,1
78,79.0,5371.0,5P5Px641Uv,Noise-Shape-Speed-4,Affect-EB-L,Affect-EB-H,Noise-Piano-H,Noise-Piano-L,1
79,80.0,12696.0,5P5Px641Uv,Noise-Shape-Speed-4,Amp-Piano-H,Amp-Piano-L,Noise-Piano-H,Noise-Piano-L,0
80,81.0,4053.0,5P5Px641Uv,Noise-Shape-Speed-4,Speed-SP3-H,Speed-SP3-L,Color-RY-L,Color-RY-H,1
81,82.0,3821.0,5P5Px641Uv,Noise-Shape-Speed-4,Size-Squares-L,Size-Squares-H,Shape-BK3-H,Shape-BK3-L,1
82,83.0,3148.0,5P5Px641Uv,Noise-Shape-Speed-4,Color-RY-L,Color-RY-H,Speed-SP1-L,Speed-SP1-H,0
83,84.0,8355.0,5P5Px641Uv,Noise-Shape-Speed-4,Pitch-Piano-L,Pitch-Piano-H,Noise-Hum-H,Noise-Hum-L,1
84,85.0,4452.0,5P5Px641Uv,Noise-Shape-Speed-4,Noise-Tone-L,Noise-Tone-H,Speed-SP4-H,Speed-SP4-L,1
85,86.0,5048.0,5P5Px641Uv,Noise-Shape-Speed-4,Speed-SP2-H,Speed-SP2-L,Pitch-Piano-L,Pitch-Piano-H,1
86,87.0,2856.0,5P5Px641Uv,Noise-Shape-Speed-4,Speed-SP3-H,Speed-SP3-L,Size-Squares-H,Size-Squares-L,0
87,88.0,4785.0,5P5Px641Uv,Noise-Shape-Speed-4,Shape-BK1-L,Shape-BK1-H,Amp-Piano-L,Amp-Piano-H,0
88,89.0,3381.0,5P5Px641Uv,Noise-Shape-Speed-4,Color-RY-H,Color-RY-L,Shape-BK3-H,Shape-BK3-L,0
89,90.0,7516.0,5P5Px641Uv,Noise-Shape-Speed-4,Noise-Tone-H,Noise-Tone-L,Brightness-Diamonds-H,Brightness-Diamonds-L,1
90,91.0,5966.0,5P5Px641Uv,Noise-Shape-Speed-4,Brightness-Diamonds-H,Brightness-Diamonds-L,Noise-Piano-L,Noise-Piano-H,1
91,92.0,4119.0,5P5Px641Uv,Noise-Shape-Speed-4,Shape-BK4-H,Shape-BK4-L,Pitch-Piano-H,Pitch-Piano-L,0
92,93.0,6882.0,5P5Px641Uv,Noise-Shape-Speed-4,Noise-Pulse-H,Noise-Pulse-L,Speed-SP1-L,Speed-SP1-H,1
93,94.0,3937.0,5P5Px641Uv,Noise-Shape-Speed-4,Affect-EB-H,Affect-EB-L,Noise-Hum-L,Noise-Hum-H,1
94,95.0,4142.0,5P5Px641Uv,Noise-Shape-Speed-4,Noise-Pulse-L,Noise-Pulse-H,Color-RY-L,Color-RY-H,0
95,96.0,4346.0,5P5Px641Uv,Noise-Shape-Speed-4,Shape-BK1-H,Shape-BK1-L,Noise-Tone-H,Noise-Tone-L,0
0,1.0,9152.0,8G0bMGKrqI,Noise-Brightness-Color-1,Shape-BK1-L,Shape-BK1-H,Brightness-Squares-H,Brightness-Squares-L,0
1,2.0,6547.0,8G0bMGKrqI,Noise-Brightness-Color-1,Speed-SP2-H,Speed-SP2-L,Brightness-Squares-L,Brightness-Squares-H,1
2,3.0,8713.0,8G0bMGKrqI,Noise-Brightness-Color-1,Size-Circles-L,Size-Circles-H,Color-RY-H,Color-RY-L,0
3,4.0,7412.0,8G0bMGKrqI,Noise-Brightness-Color-1,Noise-Hum-L,Noise-Hum-H,Brightness-Circles-H,Brightness-Circles-L,0
4,5.0,11789.0,8G0bMGKrqI,Noise-Brightness-Color-1,Size-Circles-H,Size-Circles-L,Noise-Tone-L,Noise-Tone-H,1
5,6.0,8967.0,8G0bMGKrqI,Noise-Brightness-Color-1,Brightness-Triangles-H,Brightness-Triangles-L,Size-Circles-H,Size-Circles-L,0
6,7.0,6689.0,8G0bMGKrqI,Noise-Brightness-Color-1,Brightness-Diamonds-H,Brightness-Diamonds-L,Noise-Pulse-L,Noise-Pulse-H,0
7,8.0,17102.0,8G0bMGKrqI,Noise-Brightness-Color-1,Noise-Hum-H,Noise-Hum-L,Color-RB-L,Color-RB-H,1
8,9.0,8248.0,8G0bMGKrqI,Noise-Brightness-Color-1,Noise-Piano-L,Noise-Piano-H,Affect-HS-L,Affect-HS-H,1
9,10.0,5821.0,8G0bMGKrqI,Noise-Brightness-Color-1,Noise-Hum-H,Noise-Hum-L,Shape-BK1-L,Shape-BK1-H,1
10,11.0,6674.0,8G0bMGKrqI,Noise-Brightness-Color-1,Affect-HS-L,Affect-HS-H,Noise-Tone-L,Noise-Tone-H,1
11,12.0,5911.0,8G0bMGKrqI,Noise-Brightness-Color-1,Brightness-Diamonds-H,Brightness-Diamonds-L,Noise-Hum-H,Noise-Hum-L,1
12,13.0,6970.0,8G0bMGKrqI,Noise-Brightness-Color-1,Brightness-Diamonds-L,Brightness-Diamonds-H,Color-RG-H,Color-RG-L,0
13,14.0,6212.0,8G0bMGKrqI,Noise-Brightness-Color-1,Affect-HS-H,Affect-HS-L,Color-RY-L,Color-RY-H,0
14,15.0,18287.0,8G0bMGKrqI,Noise-Brightness-Color-1,Noise-Hum-L,Noise-Hum-H,Amp-Piano-H,Amp-Piano-L,0
15,16.0,8383.0,8G0bMGKrqI,Noise-Brightness-Color-1,Affect-HS-H,Affect-HS-L,Noise-Pulse-H,Noise-Pulse-L,1
16,17.0,4926.0,8G0bMGKrqI,Noise-Brightness-Color-1,Affect-HS-H,Affect-HS-L,Brightness-Squares-H,Brightness-Squares-L,0
17,18.0,6749.0,8G0bMGKrqI,Noise-Brightness-Color-1,Color-YB-L,Color-YB-H,Amp-Piano-H,Amp-Piano-L,1
18,19.0,5031.0,8G0bMGKrqI,Noise-Brightness-Color-1,Brightness-Diamonds-L,Brightness-Diamonds-H,Shape-BK1-L,Shape-BK1-H,1
19,20.0,6738.0,8G0bMGKrqI,Noise-Brightness-Color-1,Color-RG-L,Color-RG-H,Brightness-Squares-H,Brightness-Squares-L,0
20,21.0,8603.0,8G0bMGKrqI,Noise-Brightness-Color-1,Size-Circles-H,Size-Circles-L,Color-RB-L,Color-RB-H,0
21,22.0,7417.0,8G0bMGKrqI,Noise-Brightness-Color-1,Amp-Piano-L,Amp-Piano-H,Color-RB-H,Color-RB-L,1
22,23.0,13570.0,8G0bMGKrqI,Noise-Brightness-Color-1,Noise-Piano-H,Noise-Piano-L,Pitch-Tone-H,Pitch-Tone-L,0
23,24.0,11588.0,8G0bMGKrqI,Noise-Brightness-Color-1,Noise-Piano-H,Noise-Piano-L,Speed-SP2-L,Speed-SP2-H,1
24,25.0,5927.0,8G0bMGKrqI,Noise-Brightness-Color-1,Pitch-Tone-H,Pitch-Tone-L,Brightness-Circles-H,Brightness-Circles-L,0
25,26.0,35078.0,8G0bMGKrqI,Noise-Brightness-Color-1,Noise-Piano-L,Noise-Piano-H,Amp-Piano-L,Amp-Piano-H,1
26,27.0,11064.0,8G0bMGKrqI,Noise-Brightness-Color-1,Pitch-Tone-L,Pitch-Tone-H,Color-RY-H,Color-RY-L,0
27,28.0,11505.0,8G0bMGKrqI,Noise-Brightness-Color-1,Speed-SP2-H,Speed-SP2-L,Noise-Pulse-L,Noise-Pulse-H,0
28,29.0,4916.0,8G0bMGKrqI,Noise-Brightness-Color-1,Color-RG-L,Color-RG-H,Shape-BK1-L,Shape-BK1-H,0
29,30.0,4618.0,8G0bMGKrqI,Noise-Brightness-Color-1,Brightness-Diamonds-L,Brightness-Diamonds-H,Color-RY-L,Color-RY-H,1
30,31.0,11620.0,8G0bMGKrqI,Noise-Brightness-Color-1,Color-RG-H,Color-RG-L,Pitch-Tone-L,Pitch-Tone-H,0
31,32.0,8304.0,8G0bMGKrqI,Noise-Brightness-Color-1,Speed-SP2-H,Speed-SP2-L,Noise-Tone-H,Noise-Tone-L,0
32,33.0,6070.0,8G0bMGKrqI,Noise-Brightness-Color-1,Color-YB-H,Color-YB-L,Noise-Hum-L,Noise-Hum-H,0
33,34.0,9216.0,8G0bMGKrqI,Noise-Brightness-Color-1,Color-RG-H,Color-RG-L,Noise-Tone-L,Noise-Tone-H,1
34,35.0,8195.0,8G0bMGKrqI,Noise-Brightness-Color-1,Speed-SP2-H,Speed-SP2-L,Brightness-Circles-H,Brightness-Circles-L,0
35,36.0,6432.0,8G0bMGKrqI,Noise-Brightness-Color-1,Color-RG-H,Color-RG-L,Speed-SP2-L,Speed-SP2-H,0
36,37.0,5620.0,8G0bMGKrqI,Noise-Brightness-Color-1,Shape-BK1-L,Shape-BK1-H,Noise-Tone-H,Noise-Tone-L,1
37,38.0,7143.0,8G0bMGKrqI,Noise-Brightness-Color-1,Color-RG-L,Color-RG-H,Amp-Piano-L,Amp-Piano-H,1
38,39.0,13617.0,8G0bMGKrqI,Noise-Brightness-Color-1,Pitch-Tone-H,Pitch-Tone-L,Noise-Tone-H,Noise-Tone-L,0
39,40.0,6751.0,8G0bMGKrqI,Noise-Brightness-Color-1,Affect-HS-L,Affect-HS-H,Color-RB-H,Color-RB-L,1
40,41.0,7690.0,8G0bMGKrqI,Noise-Brightness-Color-1,Noise-Hum-H,Noise-Hum-L,Brightness-Squares-L,Brightness-Squares-H,0
41,42.0,11149.0,8G0bMGKrqI,Noise-Brightness-Color-1,Shape-BK1-L,Shape-BK1-H,Brightness-Circles-L,Brightness-Circles-H,1
42,43.0,4947.0,8G0bMGKrqI,Noise-Brightness-Color-1,Brightness-Diamonds-L,Brightness-Diamonds-H,Affect-HS-L,Affect-HS-H,0
43,44.0,5879.0,8G0bMGKrqI,Noise-Brightness-Color-1,Speed-SP2-L,Speed-SP2-H,Color-RB-L,Color-RB-H,0
44,45.0,6256.0,8G0bMGKrqI,Noise-Brightness-Color-1,Noise-Piano-H,Noise-Piano-L,Brightness-Diamonds-H,Brightness-Diamonds-L,1
45,46.0,10195.0,8G0bMGKrqI,Noise-Brightness-Color-1,Amp-Piano-H,Amp-Piano-L,Noise-Tone-L,Noise-Tone-H,0
46,47.0,4790.0,8G0bMGKrqI,Noise-Brightness-Color-1,Color-YB-H,Color-YB-L,Speed-SP2-H,Speed-SP2-L,0
47,48.0,7771.0,8G0bMGKrqI,Noise-Brightness-Color-1,Color-RG-L,Color-RG-H,Noise-Pulse-H,Noise-Pulse-L,1
48,49.0,4593.0,8G0bMGKrqI,Noise-Brightness-Color-1,Brightness-Triangles-L,Brightness-Triangles-H,Affect-HS-L,Affect-HS-H,0
49,50.0,6309.0,8G0bMGKrqI,Noise-Brightness-Color-1,Size-Circles-H,Size-Circles-L,Noise-Pulse-H,Noise-Pulse-L,0
50,51.0,5460.0,8G0bMGKrqI,Noise-Brightness-Color-1,Shape-BK1-H,Shape-BK1-L,Color-RY-L,Color-RY-H,1
51,52.0,3766.0,8G0bMGKrqI,Noise-Brightness-Color-1,Color-YB-L,Color-YB-H,Brightness-Diamonds-L,Brightness-Diamonds-H,0
52,53.0,7305.0,8G0bMGKrqI,Noise-Brightness-Color-1,Amp-Piano-H,Amp-Piano-L,Brightness-Squares-H,Brightness-Squares-L,0
53,54.0,10120.0,8G0bMGKrqI,Noise-Brightness-Color-1,Amp-Piano-L,Amp-Piano-H,Noise-Pulse-H,Noise-Pulse-L,1
54,55.0,6849.0,8G0bMGKrqI,Noise-Brightness-Color-1,Color-RG-H,Color-RG-L,Size-Circles-H,Size-Circles-L,1
55,56.0,6771.0,8G0bMGKrqI,Noise-Brightness-Color-1,Noise-Hum-L,Noise-Hum-H,Color-RY-H,Color-RY-L,1
56,57.0,4805.0,8G0bMGKrqI,Noise-Brightness-Color-1,Affect-HS-L,Affect-HS-H,Brightness-Circles-L,Brightness-Circles-H,0
57,58.0,4329.0,8G0bMGKrqI,Noise-Brightness-Color-1,Size-Circles-L,Size-Circles-H,Brightness-Circles-H,Brightness-Circles-L,1
58,59.0,8642.0,8G0bMGKrqI,Noise-Brightness-Color-1,Size-Circles-L,Size-Circles-H,Brightness-Squares-L,Brightness-Squares-H,0
59,60.0,3012.0,8G0bMGKrqI,Noise-Brightness-Color-1,Color-YB-L,Color-YB-H,Shape-BK1-L,Shape-BK1-H,1
60,61.0,4446.0,8G0bMGKrqI,Noise-Brightness-Color-1,Brightness-Diamonds-L,Brightness-Diamonds-H,Color-RB-H,Color-RB-L,0
61,62.0,5038.0,8G0bMGKrqI,Noise-Brightness-Color-1,Brightness-Diamonds-H,Brightness-Diamonds-L,Pitch-Tone-L,Pitch-Tone-H,1
62,63.0,5025.0,8G0bMGKrqI,Noise-Brightness-Color-1,Brightness-Triangles-L,Brightness-Triangles-H,Amp-Piano-L,Amp-Piano-H,0
63,64.0,5062.0,8G0bMGKrqI,Noise-Brightness-Color-1,Speed-SP2-H,Speed-SP2-L,Color-RY-H,Color-RY-L,1
64,65.0,6439.0,8G0bMGKrqI,Noise-Brightness-Color-1,Noise-Hum-L,Noise-Hum-H,Size-Circles-H,Size-Circles-L,1
65,66.0,5053.0,8G0bMGKrqI,Noise-Brightness-Color-1,Color-YB-H,Color-YB-L,Pitch-Tone-H,Pitch-Tone-L,0
66,67.0,4334.0,8G0bMGKrqI,Noise-Brightness-Color-1,Brightness-Diamonds-L,Brightness-Diamonds-H,Noise-Tone-H,Noise-Tone-L,0
67,68.0,8546.0,8G0bMGKrqI,Noise-Brightness-Color-1,Noise-Piano-L,Noise-Piano-H,Size-Circles-H,Size-Circles-L,1
68,69.0,3942.0,8G0bMGKrqI,Noise-Brightness-Color-1,Color-YB-L,Color-YB-H,Affect-HS-H,Affect-HS-L,1
69,70.0,4259.0,8G0bMGKrqI,Noise-Brightness-Color-1,Color-RG-L,Color-RG-H,Brightness-Diamonds-L,Brightness-Diamonds-H,1
70,71.0,4478.0,8G0bMGKrqI,Noise-Brightness-Color-1,Amp-Piano-L,Amp-Piano-H,Brightness-Circles-L,Brightness-Circles-H,0
71,72.0,5405.0,8G0bMGKrqI,Noise-Brightness-Color-1,Noise-Hum-L,Noise-Hum-H,Affect-HS-H,Affect-HS-L,0
72,73.0,4349.0,8G0bMGKrqI,Noise-Brightness-Color-1,Pitch-Tone-H,Pitch-Tone-L,Brightness-Squares-L,Brightness-Squares-H,1
73,74.0,11236.0,8G0bMGKrqI,Noise-Brightness-Color-1,Noise-Hum-H,Noise-Hum-L,Speed-SP2-H,Speed-SP2-L,0
74,75.0,4272.0,8G0bMGKrqI,Noise-Brightness-Color-1,Brightness-Triangles-H,Brightness-Triangles-L,Pitch-Tone-H,Pitch-Tone-L,0
75,76.0,4791.0,8G0bMGKrqI,Noise-Brightness-Color-1,Noise-Hum-H,Noise-Hum-L,Brightness-Diamonds-H,Brightness-Diamonds-L,1
76,77.0,4273.0,8G0bMGKrqI,Noise-Brightness-Color-1,Color-YB-H,Color-YB-L,Size-Circles-L,Size-Circles-H,1
77,78.0,4406.0,8G0bMGKrqI,Noise-Brightness-Color-1,Color-RG-H,Color-RG-L,Noise-Hum-H,Noise-Hum-L,0
78,79.0,3477.0,8G0bMGKrqI,Noise-Brightness-Color-1,Color-RG-L,Color-RG-H,Affect-HS-H,Affect-HS-L,0
79,80.0,2952.0,8G0bMGKrqI,Noise-Brightness-Color-1,Color-RG-H,Color-RG-L,Brightness-Circles-L,Brightness-Circles-H,0
80,81.0,7247.0,8G0bMGKrqI,Noise-Brightness-Color-1,Pitch-Tone-L,Pitch-Tone-H,Noise-Pulse-L,Noise-Pulse-H,1
81,82.0,4251.0,8G0bMGKrqI,Noise-Brightness-Color-1,Brightness-Triangles-H,Brightness-Triangles-L,Noise-Hum-L,Noise-Hum-H,0
82,83.0,3868.0,8G0bMGKrqI,Noise-Brightness-Color-1,Brightness-Triangles-H,Brightness-Triangles-L,Speed-SP2-H,Speed-SP2-L,0
83,84.0,9052.0,8G0bMGKrqI,Noise-Brightness-Color-1,Noise-Hum-H,Noise-Hum-L,Pitch-Tone-L,Pitch-Tone-H,0
84,85.0,6157.0,8G0bMGKrqI,Noise-Brightness-Color-1,Pitch-Tone-L,Pitch-Tone-H,Color-RB-L,Color-RB-H,1
85,86.0,5446.0,8G0bMGKrqI,Noise-Brightness-Color-1,Amp-Piano-H,Amp-Piano-L,Color-RY-L,Color-RY-H,0
86,87.0,5025.0,8G0bMGKrqI,Noise-Brightness-Color-1,Noise-Piano-L,Noise-Piano-H,Color-RG-L,Color-RG-H,0
87,88.0,3630.0,8G0bMGKrqI,Noise-Brightness-Color-1,Brightness-Triangles-L,Brightness-Triangles-H,Shape-BK1-H,Shape-BK1-L,0
88,89.0,5907.0,8G0bMGKrqI,Noise-Brightness-Color-1,Noise-Piano-H,Noise-Piano-L,Shape-BK1-H,Shape-BK1-L,0
89,90.0,4930.0,8G0bMGKrqI,Noise-Brightness-Color-1,Brightness-Diamonds-H,Brightness-Diamonds-L,Size-Circles-L,Size-Circles-H,1
90,91.0,3709.0,8G0bMGKrqI,Noise-Brightness-Color-1,Shape-BK1-H,Shape-BK1-L,Color-RB-H,Color-RB-L,0
91,92.0,4777.0,8G0bMGKrqI,Noise-Brightness-Color-1,Noise-Hum-L,Noise-Hum-H,Color-RG-L,Color-RG-H,0
92,93.0,6570.0,8G0bMGKrqI,Noise-Brightness-Color-1,Brightness-Diamonds-L,Brightness-Diamonds-H,Amp-Piano-H,Amp-Piano-L,1
93,94.0,4689.0,8G0bMGKrqI,Noise-Brightness-Color-1,Brightness-Diamonds-H,Brightness-Diamonds-L,Speed-SP2-H,Speed-SP2-L,0
94,95.0,8833.0,8G0bMGKrqI,Noise-Brightness-Color-1,Brightness-Triangles-L,Brightness-Triangles-H,Color-RG-L,Color-RG-H,1
95,96.0,6204.0,8G0bMGKrqI,Noise-Brightness-Color-1,Shape-BK1-L,Shape-BK1-H,Noise-Pulse-L,Noise-Pulse-H,0
0,1.0,10799.0,8yAeOPk8tR,Noise-Brightness-Color-9,Noise-Piano-L,Noise-Piano-H,Size-Triangles-H,Size-Triangles-L,0
1,2.0,6374.0,8yAeOPk8tR,Noise-Brightness-Color-9,Noise-Tone-H,Noise-Tone-L,Shape-BK3-H,Shape-BK3-L,0
2,3.0,7106.0,8yAeOPk8tR,Noise-Brightness-Color-9,Color-RB-L,Color-RB-H,Brightness-Diamonds-H,Brightness-Diamonds-L,0
3,4.0,3494.0,8yAeOPk8tR,Noise-Brightness-Color-9,Brightness-Circles-L,Brightness-Circles-H,Color-RY-L,Color-RY-H,1
4,5.0,3471.0,8yAeOPk8tR,Noise-Brightness-Color-9,Brightness-Diamonds-L,Brightness-Diamonds-H,Color-RY-H,Color-RY-L,0
5,6.0,6822.0,8yAeOPk8tR,Noise-Brightness-Color-9,Speed-SP1-L,Speed-SP1-H,Color-RY-L,Color-RY-H,0
6,7.0,10068.0,8yAeOPk8tR,Noise-Brightness-Color-9,Noise-Piano-H,Noise-Piano-L,Pitch-Tone-L,Pitch-Tone-H,0
7,8.0,5016.0,8yAeOPk8tR,Noise-Brightness-Color-9,Size-Triangles-L,Size-Triangles-H,Color-RY-L,Color-RY-H,1
8,9.0,4188.0,8yAeOPk8tR,Noise-Brightness-Color-9,Color-RY-L,Color-RY-H,Brightness-Squares-L,Brightness-Squares-H,0
9,10.0,12074.0,8yAeOPk8tR,Noise-Brightness-Color-9,Shape-BK3-L,Shape-BK3-H,Noise-Pulse-H,Noise-Pulse-L,0
10,11.0,6018.0,8yAeOPk8tR,Noise-Brightness-Color-9,Shape-BK3-H,Shape-BK3-L,Color-YB-L,Color-YB-H,1
11,12.0,5152.0,8yAeOPk8tR,Noise-Brightness-Color-9,Size-Triangles-L,Size-Triangles-H,Brightness-Squares-H,Brightness-Squares-L,1
12,13.0,7796.0,8yAeOPk8tR,Noise-Brightness-Color-9,Pitch-Tone-H,Pitch-Tone-L,Noise-Hum-L,Noise-Hum-H,1
13,14.0,4200.0,8yAeOPk8tR,Noise-Brightness-Color-9,Brightness-Circles-L,Brightness-Circles-H,Affect-PD-L,Affect-PD-H,0
14,15.0,6549.0,8yAeOPk8tR,Noise-Brightness-Color-9,Noise-Tone-H,Noise-Tone-L,Brightness-Diamonds-H,Brightness-Diamonds-L,0
15,16.0,4596.0,8yAeOPk8tR,Noise-Brightness-Color-9,Speed-SP1-L,Speed-SP1-H,Brightness-Squares-H,Brightness-Squares-L,1
16,17.0,5349.0,8yAeOPk8tR,Noise-Brightness-Color-9,Brightness-Triangles-H,Brightness-Triangles-L,Noise-Hum-H,Noise-Hum-L,1
17,18.0,6670.0,8yAeOPk8tR,Noise-Brightness-Color-9,Affect-PD-L,Affect-PD-H,Noise-Pulse-L,Noise-Pulse-H,1
18,19.0,5386.0,8yAeOPk8tR,Noise-Brightness-Color-9,Brightness-Circles-H,Brightness-Circles-L,Noise-Hum-L,Noise-Hum-H,0
19,20.0,4250.0,8yAeOPk8tR,Noise-Brightness-Color-9,Color-RG-L,Color-RG-H,Brightness-Diamonds-H,Brightness-Diamonds-L,0
20,21.0,4484.0,8yAeOPk8tR,Noise-Brightness-Color-9,Speed-SP1-H,Speed-SP1-L,Brightness-Diamonds-L,Brightness-Diamonds-H,1
21,22.0,8624.0,8yAeOPk8tR,Noise-Brightness-Color-9,Noise-Piano-H,Noise-Piano-L,Speed-SP1-L,Speed-SP1-H,1
22,23.0,5127.0,8yAeOPk8tR,Noise-Brightness-Color-9,Color-RG-H,Color-RG-L,Pitch-Tone-H,Pitch-Tone-L,1
23,24.0,5695.0,8yAeOPk8tR,Noise-Brightness-Color-9,Noise-Hum-H,Noise-Hum-L,Brightness-Squares-H,Brightness-Squares-L,0
24,25.0,4833.0,8yAeOPk8tR,Noise-Brightness-Color-9,Color-RG-L,Color-RG-H,Shape-BK3-L,Shape-BK3-H,1
25,26.0,3472.0,8yAeOPk8tR,Noise-Brightness-Color-9,Brightness-Circles-H,Brightness-Circles-L,Speed-SP1-H,Speed-SP1-L,0
26,27.0,2854.0,8yAeOPk8tR,Noise-Brightness-Color-9,Brightness-Triangles-H,Brightness-Triangles-L,Size-Triangles-H,Size-Triangles-L,1
27,28.0,6376.0,8yAeOPk8tR,Noise-Brightness-Color-9,Pitch-Tone-H,Pitch-Tone-L,Color-RY-L,Color-RY-H,0
28,29.0,7795.0,8yAeOPk8tR,Noise-Brightness-Color-9,Amp-Hum-H,Amp-Hum-L,Color-YB-L,Color-YB-H,1
29,30.0,7524.0,8yAeOPk8tR,Noise-Brightness-Color-9,Noise-Tone-H,Noise-Tone-L,Pitch-Tone-H,Pitch-Tone-L,0
30,31.0,6277.0,8yAeOPk8tR,Noise-Brightness-Color-9,Brightness-Triangles-L,Brightness-Triangles-H,Affect-PD-L,Affect-PD-H,1
31,32.0,4930.0,8yAeOPk8tR,Noise-Brightness-Color-9,Pitch-Tone-L,Pitch-Tone-H,Brightness-Diamonds-L,Brightness-Diamonds-H,0
32,33.0,6869.0,8yAeOPk8tR,Noise-Brightness-Color-9,Affect-PD-L,Affect-PD-H,Brightness-Squares-L,Brightness-Squares-H,1
33,34.0,8773.0,8yAeOPk8tR,Noise-Brightness-Color-9,Amp-Hum-L,Amp-Hum-H,Brightness-Diamonds-H,Brightness-Diamonds-L,1
34,35.0,8131.0,8yAeOPk8tR,Noise-Brightness-Color-9,Color-RG-H,Color-RG-L,Size-Triangles-H,Size-Triangles-L,1
35,36.0,5830.0,8yAeOPk8tR,Noise-Brightness-Color-9,Noise-Tone-L,Noise-Tone-H,Color-RY-H,Color-RY-L,0
36,37.0,6178.0,8yAeOPk8tR,Noise-Brightness-Color-9,Brightness-Diamonds-L,Brightness-Diamonds-H,Noise-Pulse-H,Noise-Pulse-L,0
37,38.0,4508.0,8yAeOPk8tR,Noise-Brightness-Color-9,Brightness-Diamonds-H,Brightness-Diamonds-L,Noise-Hum-L,Noise-Hum-H,1
38,39.0,4965.0,8yAeOPk8tR,Noise-Brightness-Color-9,Color-RG-L,Color-RG-H,Amp-Hum-L,Amp-Hum-H,1
39,40.0,5398.0,8yAeOPk8tR,Noise-Brightness-Color-9,Brightness-Circles-L,Brightness-Circles-H,Amp-Hum-L,Amp-Hum-H,1
40,41.0,7080.0,8yAeOPk8tR,Noise-Brightness-Color-9,Noise-Piano-L,Noise-Piano-H,Affect-PD-H,Affect-PD-L,0
41,42.0,5980.0,8yAeOPk8tR,Noise-Brightness-Color-9,Noise-Hum-L,Noise-Hum-H,Color-RY-L,Color-RY-H,1
42,43.0,5448.0,8yAeOPk8tR,Noise-Brightness-Color-9,Color-RB-H,Color-RB-L,Pitch-Tone-H,Pitch-Tone-L,1
43,44.0,4818.0,8yAeOPk8tR,Noise-Brightness-Color-9,Brightness-Triangles-H,Brightness-Triangles-L,Speed-SP1-H,Speed-SP1-L,0
44,45.0,5522.0,8yAeOPk8tR,Noise-Brightness-Color-9,Color-RG-L,Color-RG-H,Affect-PD-L,Affect-PD-H,0
45,46.0,3694.0,8yAeOPk8tR,Noise-Brightness-Color-9,Brightness-Circles-L,Brightness-Circles-H,Shape-BK3-L,Shape-BK3-H,1
46,47.0,7179.0,8yAeOPk8tR,Noise-Brightness-Color-9,Speed-SP1-L,Speed-SP1-H,Color-YB-H,Color-YB-L,1
47,48.0,5793.0,8yAeOPk8tR,Noise-Brightness-Color-9,Color-RY-H,Color-RY-L,Noise-Pulse-L,Noise-Pulse-H,0
48,49.0,9823.0,8yAeOPk8tR,Noise-Brightness-Color-9,Brightness-Triangles-L,Brightness-Triangles-H,Shape-BK3-H,Shape-BK3-L,1
49,50.0,6782.0,8yAeOPk8tR,Noise-Brightness-Color-9,Amp-Hum-H,Amp-Hum-L,Color-RY-H,Color-RY-L,1
50,51.0,5040.0,8yAeOPk8tR,Noise-Brightness-Color-9,Color-RG-H,Color-RG-L,Noise-Hum-H,Noise-Hum-L,1
51,52.0,7708.0,8yAeOPk8tR,Noise-Brightness-Color-9,Color-RB-L,Color-RB-H,Shape-BK3-L,Shape-BK3-H,0
52,53.0,5028.0,8yAeOPk8tR,Noise-Brightness-Color-9,Brightness-Diamonds-L,Brightness-Diamonds-H,Color-YB-L,Color-YB-H,0
53,54.0,19623.0,8yAeOPk8tR,Noise-Brightness-Color-9,Amp-Hum-L,Amp-Hum-H,Noise-Hum-H,Noise-Hum-L,1
54,55.0,22961.0,8yAeOPk8tR,Noise-Brightness-Color-9,Amp-Hum-L,Amp-Hum-H,Noise-Pulse-L,Noise-Pulse-H,0
55,56.0,4841.0,8yAeOPk8tR,Noise-Brightness-Color-9,Brightness-Triangles-L,Brightness-Triangles-H,Amp-Hum-L,Amp-Hum-H,0
56,57.0,4373.0,8yAeOPk8tR,Noise-Brightness-Color-9,Size-Triangles-H,Size-Triangles-L,Brightness-Diamonds-L,Brightness-Diamonds-H,1
57,58.0,4164.0,8yAeOPk8tR,Noise-Brightness-Color-9,Shape-BK3-H,Shape-BK3-L,Color-RY-H,Color-RY-L,1
58,59.0,6002.0,8yAeOPk8tR,Noise-Brightness-Color-9,Noise-Tone-L,Noise-Tone-H,Amp-Hum-H,Amp-Hum-L,0
59,60.0,5174.0,8yAeOPk8tR,Noise-Brightness-Color-9,Size-Triangles-L,Size-Triangles-H,Noise-Pulse-L,Noise-Pulse-H,1
60,61.0,8070.0,8yAeOPk8tR,Noise-Brightness-Color-9,Affect-PD-H,Affect-PD-L,Color-RY-H,Color-RY-L,0
61,62.0,4841.0,8yAeOPk8tR,Noise-Brightness-Color-9,Shape-BK3-L,Shape-BK3-H,Brightness-Diamonds-H,Brightness-Diamonds-L,0
62,63.0,3102.0,8yAeOPk8tR,Noise-Brightness-Color-9,Affect-PD-H,Affect-PD-L,Brightness-Diamonds-H,Brightness-Diamonds-L,1
63,64.0,5014.0,8yAeOPk8tR,Noise-Brightness-Color-9,Noise-Piano-H,Noise-Piano-L,Brightness-Diamonds-L,Brightness-Diamonds-H,1
64,65.0,7263.0,8yAeOPk8tR,Noise-Brightness-Color-9,Noise-Piano-H,Noise-Piano-L,Shape-BK3-H,Shape-BK3-L,0
65,66.0,6116.0,8yAeOPk8tR,Noise-Brightness-Color-9,Speed-SP1-H,Speed-SP1-L,Noise-Pulse-H,Noise-Pulse-L,1
66,67.0,3755.0,8yAeOPk8tR,Noise-Brightness-Color-9,Affect-PD-H,Affect-PD-L,Color-YB-L,Color-YB-H,1
67,68.0,5881.0,8yAeOPk8tR,Noise-Brightness-Color-9,Color-RG-H,Color-RG-L,Speed-SP1-H,Speed-SP1-L,1
68,69.0,4323.0,8yAeOPk8tR,Noise-Brightness-Color-9,Pitch-Tone-H,Pitch-Tone-L,Brightness-Squares-H,Brightness-Squares-L,0
69,70.0,5386.0,8yAeOPk8tR,Noise-Brightness-Color-9,Noise-Tone-L,Noise-Tone-H,Size-Triangles-L,Size-Triangles-H,0
70,71.0,3211.0,8yAeOPk8tR,Noise-Brightness-Color-9,Size-Triangles-H,Size-Triangles-L,Color-YB-H,Color-YB-L,1
71,72.0,4250.0,8yAeOPk8tR,Noise-Brightness-Color-9,Color-RB-L,Color-RB-H,Affect-PD-H,Affect-PD-L,1
72,73.0,17843.0,8yAeOPk8tR,Noise-Brightness-Color-9,Amp-Hum-H,Amp-Hum-L,Brightness-Squares-L,Brightness-Squares-H,0
73,74.0,4151.0,8yAeOPk8tR,Noise-Brightness-Color-9,Color-RB-L,Color-RB-H,Amp-Hum-L,Amp-Hum-H,1
74,75.0,3790.0,8yAeOPk8tR,Noise-Brightness-Color-9,Noise-Hum-L,Noise-Hum-H,Brightness-Diamonds-L,Brightness-Diamonds-H,0
75,76.0,7264.0,8yAeOPk8tR,Noise-Brightness-Color-9,Affect-PD-H,Affect-PD-L,Noise-Hum-H,Noise-Hum-L,1
76,77.0,5622.0,8yAeOPk8tR,Noise-Brightness-Color-9,Color-RB-H,Color-RB-L,Speed-SP1-H,Speed-SP1-L,1
77,78.0,9735.0,8yAeOPk8tR,Noise-Brightness-Color-9,Pitch-Tone-H,Pitch-Tone-L,Noise-Pulse-H,Noise-Pulse-L,1
78,79.0,15570.0,8yAeOPk8tR,Noise-Brightness-Color-9,Color-RB-H,Color-RB-L,Noise-Hum-H,Noise-Hum-L,1
79,80.0,5583.0,8yAeOPk8tR,Noise-Brightness-Color-9,Brightness-Triangles-H,Brightness-Triangles-L,Pitch-Tone-L,Pitch-Tone-H,1
80,81.0,34020.0,8yAeOPk8tR,Noise-Brightness-Color-9,Shape-BK3-H,Shape-BK3-L,Noise-Hum-L,Noise-Hum-H,1
81,82.0,5498.0,8yAeOPk8tR,Noise-Brightness-Color-9,Noise-Tone-L,Noise-Tone-H,Affect-PD-L,Affect-PD-H,1
82,83.0,4877.0,8yAeOPk8tR,Noise-Brightness-Color-9,Brightness-Circles-H,Brightness-Circles-L,Pitch-Tone-L,Pitch-Tone-H,0
83,84.0,4843.0,8yAeOPk8tR,Noise-Brightness-Color-9,Brightness-Circles-H,Brightness-Circles-L,Size-Triangles-L,Size-Triangles-H,0
84,85.0,5733.0,8yAeOPk8tR,Noise-Brightness-Color-9,Noise-Tone-H,Noise-Tone-L,Speed-SP1-H,Speed-SP1-L,0
85,86.0,3308.0,8yAeOPk8tR,Noise-Brightness-Color-9,Color-RB-H,Color-RB-L,Size-Triangles-L,Size-Triangles-H,0
86,87.0,4991.0,8yAeOPk8tR,Noise-Brightness-Color-9,Brightness-Triangles-L,Brightness-Triangles-H,Color-RY-L,Color-RY-H,0
87,88.0,9055.0,8yAeOPk8tR,Noise-Brightness-Color-9,Noise-Piano-L,Noise-Piano-H,Amp-Hum-L,Amp-Hum-H,0
88,89.0,8796.0,8yAeOPk8tR,Noise-Brightness-Color-9,Speed-SP1-L,Speed-SP1-H,Noise-Hum-L,Noise-Hum-H,0
89,90.0,3767.0,8yAeOPk8tR,Noise-Brightness-Color-9,Color-RY-L,Color-RY-H,Brightness-Diamonds-H,Brightness-Diamonds-L,0
90,91.0,4555.0,8yAeOPk8tR,Noise-Brightness-Color-9,Noise-Hum-L,Noise-Hum-H,Color-YB-H,Color-YB-L,1
91,92.0,5595.0,8yAeOPk8tR,Noise-Brightness-Color-9,Pitch-Tone-H,Pitch-Tone-L,Color-YB-H,Color-YB-L,0
92,93.0,7055.0,8yAeOPk8tR,Noise-Brightness-Color-9,Noise-Piano-L,Noise-Piano-H,Color-RY-L,Color-RY-H,1
93,94.0,4163.0,8yAeOPk8tR,Noise-Brightness-Color-9,Color-RY-L,Color-RY-H,Noise-Hum-H,Noise-Hum-L,0
94,95.0,3545.0,8yAeOPk8tR,Noise-Brightness-Color-9,Shape-BK3-H,Shape-BK3-L,Brightness-Squares-L,Brightness-Squares-H,1
95,96.0,4633.0,8yAeOPk8tR,Noise-Brightness-Color-9,Size-Triangles-H,Size-Triangles-L,Noise-Hum-H,Noise-Hum-L,1
0,1.0,14846.0,9MqsdLDwv7,Pitch-Shape-Affect-2,Brightness-Diamonds-L,Brightness-Diamonds-H,Pitch-Pulse-H,Pitch-Pulse-L,0
1,2.0,8265.0,9MqsdLDwv7,Pitch-Shape-Affect-2,Size-Triangles-H,Size-Triangles-L,Pitch-Piano-L,Pitch-Piano-H,0
2,3.0,5326.0,9MqsdLDwv7,Pitch-Shape-Affect-2,Affect-PD-L,Affect-PD-H,Shape-BK4-L,Shape-BK4-H,0
3,4.0,6506.0,9MqsdLDwv7,Pitch-Shape-Affect-2,Noise-Tone-L,Noise-Tone-H,Shape-BK4-H,Shape-BK4-L,1
4,5.0,4699.0,9MqsdLDwv7,Pitch-Shape-Affect-2,Speed-SP3-L,Speed-SP3-H,Shape-BK3-H,Shape-BK3-L,0
5,6.0,4009.0,9MqsdLDwv7,Pitch-Shape-Affect-2,Shape-BK1-L,Shape-BK1-H,Brightness-Diamonds-H,Brightness-Diamonds-L,0
6,7.0,8354.0,9MqsdLDwv7,Pitch-Shape-Affect-2,Affect-PD-L,Affect-PD-H,Pitch-Hum-H,Pitch-Hum-L,0
7,8.0,5530.0,9MqsdLDwv7,Pitch-Shape-Affect-2,Pitch-Hum-L,Pitch-Hum-H,Affect-PD-L,Affect-PD-H,1
8,9.0,456846.0,9MqsdLDwv7,Pitch-Shape-Affect-2,Affect-PD-L,Affect-PD-H,Size-Triangles-H,Size-Triangles-L,0
9,10.0,2836.0,9MqsdLDwv7,Pitch-Shape-Affect-2,Affect-PD-L,Affect-PD-H,Shape-BK3-L,Shape-BK3-H,0
10,11.0,7006.0,9MqsdLDwv7,Pitch-Shape-Affect-2,Shape-BK1-L,Shape-BK1-H,Noise-Tone-H,Noise-Tone-L,1
11,12.0,4088.0,9MqsdLDwv7,Pitch-Shape-Affect-2,Affect-PD-H,Affect-PD-L,Brightness-Diamonds-L,Brightness-Diamonds-H,1
12,13.0,6093.0,9MqsdLDwv7,Pitch-Shape-Affect-2,Brightness-Diamonds-H,Brightness-Diamonds-L,Shape-BK3-H,Shape-BK3-L,0
13,14.0,4135.0,9MqsdLDwv7,Pitch-Shape-Affect-2,Size-Triangles-H,Size-Triangles-L,Affect-HS-H,Affect-HS-L,0
14,15.0,6835.0,9MqsdLDwv7,Pitch-Shape-Affect-2,Noise-Tone-L,Noise-Tone-H,Shape-BK3-H,Shape-BK3-L,1
15,16.0,11711.0,9MqsdLDwv7,Pitch-Shape-Affect-2,Shape-BK4-H,Shape-BK4-L,Pitch-Pulse-H,Pitch-Pulse-L,0
16,17.0,38269.0,9MqsdLDwv7,Pitch-Shape-Affect-2,Color-YB-L,Color-YB-H,Pitch-Piano-L,Pitch-Piano-H,0
17,18.0,4837.0,9MqsdLDwv7,Pitch-Shape-Affect-2,Color-YB-H,Color-YB-L,Shape-BK3-L,Shape-BK3-H,0
18,19.0,7188.0,9MqsdLDwv7,Pitch-Shape-Affect-2,Noise-Tone-H,Noise-Tone-L,Affect-SC-H,Affect-SC-L,0
19,20.0,6025.0,9MqsdLDwv7,Pitch-Shape-Affect-2,Affect-PD-L,Affect-PD-H,Pitch-Piano-L,Pitch-Piano-H,1
20,21.0,54221.0,9MqsdLDwv7,Pitch-Shape-Affect-2,Affect-EB-H,Affect-EB-L,Noise-Tone-L,Noise-Tone-H,0
21,22.0,14242.0,9MqsdLDwv7,Pitch-Shape-Affect-2,Noise-Tone-L,Noise-Tone-H,Pitch-Pulse-L,Pitch-Pulse-H,0
22,23.0,7869.0,9MqsdLDwv7,Pitch-Shape-Affect-2,Affect-PD-H,Affect-PD-L,Pitch-Pulse-L,Pitch-Pulse-H,1
23,24.0,4897.0,9MqsdLDwv7,Pitch-Shape-Affect-2,Size-Triangles-L,Size-Triangles-H,Shape-BK3-L,Shape-BK3-H,1
24,25.0,93338.0,9MqsdLDwv7,Pitch-Shape-Affect-2,Color-YB-L,Color-YB-H,Shape-BK4-L,Shape-BK4-H,0
25,26.0,14911.0,9MqsdLDwv7,Pitch-Shape-Affect-2,Pitch-Hum-L,Pitch-Hum-H,Shape-BK4-H,Shape-BK4-L,1
26,27.0,15177.0,9MqsdLDwv7,Pitch-Shape-Affect-2,Shape-BK1-H,Shape-BK1-L,Amp-Piano-L,Amp-Piano-H,1
27,28.0,5293.0,9MqsdLDwv7,Pitch-Shape-Affect-2,Size-Triangles-H,Size-Triangles-L,Affect-SC-H,Affect-SC-L,1
28,29.0,43919.0,9MqsdLDwv7,Pitch-Shape-Affect-2,Amp-Piano-L,Amp-Piano-H,Affect-SC-L,Affect-SC-H,0
29,30.0,7423.0,9MqsdLDwv7,Pitch-Shape-Affect-2,Pitch-Hum-L,Pitch-Hum-H,Shape-BK3-H,Shape-BK3-L,1
30,31.0,5174.0,9MqsdLDwv7,Pitch-Shape-Affect-2,Affect-EB-L,Affect-EB-H,Shape-BK4-L,Shape-BK4-H,1
31,32.0,4692.0,9MqsdLDwv7,Pitch-Shape-Affect-2,Affect-PD-H,Affect-PD-L,Shape-BK4-H,Shape-BK4-L,1
32,33.0,14467.0,9MqsdLDwv7,Pitch-Shape-Affect-2,Amp-Piano-L,Amp-Piano-H,Pitch-Pulse-H,Pitch-Pulse-L,0
33,34.0,15952.0,9MqsdLDwv7,Pitch-Shape-Affect-2,Affect-PD-H,Affect-PD-L,Speed-SP3-L,Speed-SP3-H,1
34,35.0,3224.0,9MqsdLDwv7,Pitch-Shape-Affect-2,Affect-EB-L,Affect-EB-H,Speed-SP3-H,Speed-SP3-L,1
35,36.0,35678.0,9MqsdLDwv7,Pitch-Shape-Affect-2,Color-YB-H,Color-YB-L,Affect-SC-H,Affect-SC-L,1
36,37.0,6954.0,9MqsdLDwv7,Pitch-Shape-Affect-2,Affect-EB-L,Affect-EB-H,Amp-Piano-L,Amp-Piano-H,1
37,38.0,17627.0,9MqsdLDwv7,Pitch-Shape-Affect-2,Shape-BK2-L,Shape-BK2-H,Amp-Piano-H,Amp-Piano-L,0
38,39.0,64287.0,9MqsdLDwv7,Pitch-Shape-Affect-2,Pitch-Hum-H,Pitch-Hum-L,Amp-Piano-H,Amp-Piano-L,1
39,40.0,5846.0,9MqsdLDwv7,Pitch-Shape-Affect-2,Affect-EB-L,Affect-EB-H,Brightness-Diamonds-H,Brightness-Diamonds-L,0
40,41.0,8753.0,9MqsdLDwv7,Pitch-Shape-Affect-2,Pitch-Hum-L,Pitch-Hum-H,Color-YB-H,Color-YB-L,0
41,42.0,9163.0,9MqsdLDwv7,Pitch-Shape-Affect-2,Pitch-Hum-H,Pitch-Hum-L,Brightness-Diamonds-L,Brightness-Diamonds-H,1
42,43.0,4256.0,9MqsdLDwv7,Pitch-Shape-Affect-2,Color-YB-L,Color-YB-H,Affect-HS-H,Affect-HS-L,1
43,44.0,6697.0,9MqsdLDwv7,Pitch-Shape-Affect-2,Pitch-Tone-H,Pitch-Tone-L,Size-Triangles-H,Size-Triangles-L,0
44,45.0,36746.0,9MqsdLDwv7,Pitch-Shape-Affect-2,Amp-Piano-L,Amp-Piano-H,Shape-BK3-L,Shape-BK3-H,1
45,46.0,160686.0,9MqsdLDwv7,Pitch-Shape-Affect-2,Shape-BK4-H,Shape-BK4-L,Pitch-Piano-H,Pitch-Piano-L,0
46,47.0,4984.0,9MqsdLDwv7,Pitch-Shape-Affect-2,Pitch-Hum-H,Pitch-Hum-L,Affect-HS-H,Affect-HS-L,1
47,48.0,2620.0,9MqsdLDwv7,Pitch-Shape-Affect-2,Shape-BK2-L,Shape-BK2-H,Color-YB-L,Color-YB-H,1
48,49.0,11785.0,9MqsdLDwv7,Pitch-Shape-Affect-2,Affect-PD-H,Affect-PD-L,Amp-Piano-H,Amp-Piano-L,0
49,50.0,6061.0,9MqsdLDwv7,Pitch-Shape-Affect-2,Shape-BK2-L,Shape-BK2-H,Size-Triangles-L,Size-Triangles-H,0
50,51.0,5883.0,9MqsdLDwv7,Pitch-Shape-Affect-2,Shape-BK2-H,Shape-BK2-L,Noise-Tone-L,Noise-Tone-H,1
51,52.0,4967.0,9MqsdLDwv7,Pitch-Shape-Affect-2,Color-YB-H,Color-YB-L,Pitch-Pulse-L,Pitch-Pulse-H,1
52,53.0,6672.0,9MqsdLDwv7,Pitch-Shape-Affect-2,Shape-BK2-H,Shape-BK2-L,Pitch-Hum-L,Pitch-Hum-H,0
53,54.0,10213.0,9MqsdLDwv7,Pitch-Shape-Affect-2,Amp-Piano-H,Amp-Piano-L,Shape-BK4-L,Shape-BK4-H,0
54,55.0,8378.0,9MqsdLDwv7,Pitch-Shape-Affect-2,Speed-SP3-L,Speed-SP3-H,Affect-SC-L,Affect-SC-H,0
55,56.0,58711.0,9MqsdLDwv7,Pitch-Shape-Affect-2,Pitch-Hum-L,Pitch-Hum-H,Size-Triangles-H,Size-Triangles-L,0
56,57.0,6026.0,9MqsdLDwv7,Pitch-Shape-Affect-2,Brightness-Diamonds-H,Brightness-Diamonds-L,Pitch-Piano-H,Pitch-Piano-L,1
57,58.0,9477.0,9MqsdLDwv7,Pitch-Shape-Affect-2,Brightness-Diamonds-L,Brightness-Diamonds-H,Shape-BK4-H,Shape-BK4-L,0
58,59.0,16364.0,9MqsdLDwv7,Pitch-Shape-Affect-2,Pitch-Hum-L,Pitch-Hum-H,Noise-Tone-H,Noise-Tone-L,1
59,60.0,6210.0,9MqsdLDwv7,Pitch-Shape-Affect-2,Pitch-Tone-H,Pitch-Tone-L,Affect-PD-L,Affect-PD-H,0
60,61.0,4414.0,9MqsdLDwv7,Pitch-Shape-Affect-2,Shape-BK4-H,Shape-BK4-L,Affect-SC-L,Affect-SC-H,1
61,62.0,2437.0,9MqsdLDwv7,Pitch-Shape-Affect-2,Shape-BK2-L,Shape-BK2-H,Affect-PD-H,Affect-PD-L,1
62,63.0,2341.0,9MqsdLDwv7,Pitch-Shape-Affect-2,Affect-EB-H,Affect-EB-L,Size-Triangles-L,Size-Triangles-H,1
63,64.0,10088.0,9MqsdLDwv7,Pitch-Shape-Affect-2,Pitch-Tone-H,Pitch-Tone-L,Color-YB-L,Color-YB-H,0
64,65.0,4020.0,9MqsdLDwv7,Pitch-Shape-Affect-2,Pitch-Hum-H,Pitch-Hum-L,Speed-SP3-H,Speed-SP3-L,1
65,66.0,2844.0,9MqsdLDwv7,Pitch-Shape-Affect-2,Shape-BK1-H,Shape-BK1-L,Size-Triangles-L,Size-Triangles-H,1
66,67.0,4876.0,9MqsdLDwv7,Pitch-Shape-Affect-2,Pitch-Hum-H,Pitch-Hum-L,Shape-BK4-H,Shape-BK4-L,0
67,68.0,2770.0,9MqsdLDwv7,Pitch-Shape-Affect-2,Shape-BK2-H,Shape-BK2-L,Brightness-Diamonds-H,Brightness-Diamonds-L,0
68,69.0,4750.0,9MqsdLDwv7,Pitch-Shape-Affect-2,Size-Triangles-L,Size-Triangles-H,Pitch-Pulse-L,Pitch-Pulse-H,1
69,70.0,252715.0,9MqsdLDwv7,Pitch-Shape-Affect-2,Affect-EB-H,Affect-EB-L,Color-YB-L,Color-YB-H,0
70,71.0,18064.0,9MqsdLDwv7,Pitch-Shape-Affect-2,Speed-SP3-H,Speed-SP3-L,Affect-HS-L,Affect-HS-H,1
71,72.0,19243.0,9MqsdLDwv7,Pitch-Shape-Affect-2,Speed-SP3-H,Speed-SP3-L,Pitch-Pulse-H,Pitch-Pulse-L,1
72,73.0,3869.0,9MqsdLDwv7,Pitch-Shape-Affect-2,Shape-BK1-L,Shape-BK1-H,Speed-SP3-L,Speed-SP3-H,0
73,74.0,2416.0,9MqsdLDwv7,Pitch-Shape-Affect-2,Shape-BK1-H,Shape-BK1-L,Color-YB-H,Color-YB-L,0
74,75.0,2714.0,9MqsdLDwv7,Pitch-Shape-Affect-2,Shape-BK4-H,Shape-BK4-L,Affect-HS-L,Affect-HS-H,0
75,76.0,4379.0,9MqsdLDwv7,Pitch-Shape-Affect-2,Pitch-Hum-L,Pitch-Hum-H,Affect-SC-H,Affect-SC-L,0
76,77.0,5867.0,9MqsdLDwv7,Pitch-Shape-Affect-2,Brightness-Diamonds-H,Brightness-Diamonds-L,Affect-SC-L,Affect-SC-H,0
77,78.0,11135.0,9MqsdLDwv7,Pitch-Shape-Affect-2,Pitch-Tone-L,Pitch-Tone-H,Amp-Piano-H,Amp-Piano-L,1
78,79.0,2900.0,9MqsdLDwv7,Pitch-Shape-Affect-2,Affect-PD-L,Affect-PD-H,Color-YB-H,Color-YB-L,1
79,80.0,10514.0,9MqsdLDwv7,Pitch-Shape-Affect-2,Amp-Piano-H,Amp-Piano-L,Affect-HS-L,Affect-HS-H,1
80,81.0,8520.0,9MqsdLDwv7,Pitch-Shape-Affect-2,Affect-PD-L,Affect-PD-H,Noise-Tone-L,Noise-Tone-H,1
81,82.0,4864.0,9MqsdLDwv7,Pitch-Shape-Affect-2,Pitch-Tone-L,Pitch-Tone-H,Speed-SP3-L,Speed-SP3-H,0
82,83.0,3092.0,9MqsdLDwv7,Pitch-Shape-Affect-2,Brightness-Diamonds-L,Brightness-Diamonds-H,Affect-HS-L,Affect-HS-H,0
83,84.0,17376.0,9MqsdLDwv7,Pitch-Shape-Affect-2,Noise-Tone-H,Noise-Tone-L,Pitch-Piano-L,Pitch-Piano-H,0
84,85.0,18266.0,9MqsdLDwv7,Pitch-Shape-Affect-2,Speed-SP3-L,Speed-SP3-H,Pitch-Piano-H,Pitch-Piano-L,1
85,86.0,4675.0,9MqsdLDwv7,Pitch-Shape-Affect-2,Affect-EB-H,Affect-EB-L,Pitch-Hum-H,Pitch-Hum-L,0
86,87.0,11413.0,9MqsdLDwv7,Pitch-Shape-Affect-2,Shape-BK1-L,Shape-BK1-H,Pitch-Hum-L,Pitch-Hum-H,0
87,88.0,4048.0,9MqsdLDwv7,Pitch-Shape-Affect-2,Size-Triangles-H,Size-Triangles-L,Shape-BK4-L,Shape-BK4-H,1
88,89.0,17506.0,9MqsdLDwv7,Pitch-Shape-Affect-2,Pitch-Tone-H,Pitch-Tone-L,Noise-Tone-H,Noise-Tone-L,0
89,90.0,11135.0,9MqsdLDwv7,Pitch-Shape-Affect-2,Amp-Piano-H,Amp-Piano-L,Pitch-Piano-H,Pitch-Piano-L,0
90,91.0,2626.0,9MqsdLDwv7,Pitch-Shape-Affect-2,Shape-BK1-H,Shape-BK1-L,Affect-PD-L,Affect-PD-H,0
91,92.0,2195.0,9MqsdLDwv7,Pitch-Shape-Affect-2,Shape-BK2-H,Shape-BK2-L,Speed-SP3-L,Speed-SP3-H,0
92,93.0,12699.0,9MqsdLDwv7,Pitch-Shape-Affect-2,Noise-Tone-L,Noise-Tone-H,Affect-HS-H,Affect-HS-L,1
93,94.0,6746.0,9MqsdLDwv7,Pitch-Shape-Affect-2,Pitch-Tone-L,Pitch-Tone-H,Brightness-Diamonds-L,Brightness-Diamonds-H,1
94,95.0,12343.0,9MqsdLDwv7,Pitch-Shape-Affect-2,Pitch-Tone-L,Pitch-Tone-H,Shape-BK4-H,Shape-BK4-L,1
95,96.0,4082.0,9MqsdLDwv7,Pitch-Shape-Affect-2,Speed-SP3-H,Speed-SP3-L,Shape-BK4-H,Shape-BK4-L,1
0,1.0,9934.0,aAq5dCWALp,Pitch-Shape-Affect-7,Amp-Hum-L,Amp-Hum-H,Pitch-Tone-H,Pitch-Tone-L,0
1,2.0,6903.0,aAq5dCWALp,Pitch-Shape-Affect-7,Affect-SC-L,Affect-SC-H,Pitch-Pulse-L,Pitch-Pulse-H,1
2,3.0,21589.0,aAq5dCWALp,Pitch-Shape-Affect-7,Color-YB-H,Color-YB-L,Pitch-Hum-H,Pitch-Hum-L,1
3,4.0,10452.0,aAq5dCWALp,Pitch-Shape-Affect-7,Amp-Hum-L,Amp-Hum-H,Pitch-Hum-L,Pitch-Hum-H,1
4,5.0,8663.0,aAq5dCWALp,Pitch-Shape-Affect-7,Shape-BK3-L,Shape-BK3-H,Size-Triangles-H,Size-Triangles-L,1
5,6.0,6849.0,aAq5dCWALp,Pitch-Shape-Affect-7,Noise-Piano-L,Noise-Piano-H,Shape-BK4-H,Shape-BK4-L,1
6,7.0,8015.0,aAq5dCWALp,Pitch-Shape-Affect-7,Affect-SC-L,Affect-SC-H,Size-Triangles-L,Size-Triangles-H,0
7,8.0,5034.0,aAq5dCWALp,Pitch-Shape-Affect-7,Affect-SC-H,Affect-SC-L,Amp-Hum-H,Amp-Hum-L,0
8,9.0,5813.0,aAq5dCWALp,Pitch-Shape-Affect-7,Speed-SP1-L,Speed-SP1-H,Shape-BK4-H,Shape-BK4-L,1
9,10.0,10322.0,aAq5dCWALp,Pitch-Shape-Affect-7,Pitch-Piano-L,Pitch-Piano-H,Amp-Hum-L,Amp-Hum-H,1
10,11.0,10035.0,aAq5dCWALp,Pitch-Shape-Affect-7,Affect-PD-L,Affect-PD-H,Speed-SP1-L,Speed-SP1-H,1
11,12.0,5189.0,aAq5dCWALp,Pitch-Shape-Affect-7,Color-YB-L,Color-YB-H,Shape-BK2-H,Shape-BK2-L,1
12,13.0,4869.0,aAq5dCWALp,Pitch-Shape-Affect-7,Size-Triangles-H,Size-Triangles-L,Affect-EB-L,Affect-EB-H,1
13,14.0,4669.0,aAq5dCWALp,Pitch-Shape-Affect-7,Shape-BK3-H,Shape-BK3-L,Affect-EB-H,Affect-EB-L,1
14,15.0,7020.0,aAq5dCWALp,Pitch-Shape-Affect-7,Pitch-Pulse-H,Pitch-Pulse-L,Affect-HS-H,Affect-HS-L,0
15,16.0,5175.0,aAq5dCWALp,Pitch-Shape-Affect-7,Size-Triangles-L,Size-Triangles-H,Shape-BK2-H,Shape-BK2-L,1
16,17.0,8192.0,aAq5dCWALp,Pitch-Shape-Affect-7,Pitch-Piano-H,Pitch-Piano-L,Affect-HS-L,Affect-HS-H,0
17,18.0,6825.0,aAq5dCWALp,Pitch-Shape-Affect-7,Shape-BK3-H,Shape-BK3-L,Speed-SP1-L,Speed-SP1-H,1
18,19.0,4696.0,aAq5dCWALp,Pitch-Shape-Affect-7,Affect-SC-H,Affect-SC-L,Brightness-Squares-L,Brightness-Squares-H,0
19,20.0,7917.0,aAq5dCWALp,Pitch-Shape-Affect-7,Shape-BK1-L,Shape-BK1-H,Noise-Piano-H,Noise-Piano-L,1
20,21.0,5912.0,aAq5dCWALp,Pitch-Shape-Affect-7,Shape-BK3-L,Shape-BK3-H,Color-YB-L,Color-YB-H,0
21,22.0,9149.0,aAq5dCWALp,Pitch-Shape-Affect-7,Pitch-Pulse-H,Pitch-Pulse-L,Amp-Hum-L,Amp-Hum-H,0
22,23.0,7868.0,aAq5dCWALp,Pitch-Shape-Affect-7,Pitch-Pulse-H,Pitch-Pulse-L,Speed-SP1-L,Speed-SP1-H,0
23,24.0,8710.0,aAq5dCWALp,Pitch-Shape-Affect-7,Noise-Piano-H,Noise-Piano-L,Affect-EB-L,Affect-EB-H,0
24,25.0,3992.0,aAq5dCWALp,Pitch-Shape-Affect-7,Shape-BK1-L,Shape-BK1-H,Brightness-Squares-H,Brightness-Squares-L,0
25,26.0,7166.0,aAq5dCWALp,Pitch-Shape-Affect-7,Speed-SP1-H,Speed-SP1-L,Pitch-Tone-H,Pitch-Tone-L,0
26,27.0,3517.0,aAq5dCWALp,Pitch-Shape-Affect-7,Shape-BK1-H,Shape-BK1-L,Size-Triangles-L,Size-Triangles-H,1
27,28.0,5985.0,aAq5dCWALp,Pitch-Shape-Affect-7,Pitch-Pulse-H,Pitch-Pulse-L,Affect-EB-L,Affect-EB-H,1
28,29.0,6564.0,aAq5dCWALp,Pitch-Shape-Affect-7,Color-YB-L,Color-YB-H,Pitch-Tone-L,Pitch-Tone-H,0
29,30.0,5541.0,aAq5dCWALp,Pitch-Shape-Affect-7,Brightness-Squares-L,Brightness-Squares-H,Pitch-Tone-H,Pitch-Tone-L,0
30,31.0,9716.0,aAq5dCWALp,Pitch-Shape-Affect-7,Pitch-Piano-H,Pitch-Piano-L,Size-Triangles-L,Size-Triangles-H,0
31,32.0,4760.0,aAq5dCWALp,Pitch-Shape-Affect-7,Brightness-Squares-H,Brightness-Squares-L,Shape-BK2-L,Shape-BK2-H,0
32,33.0,4331.0,aAq5dCWALp,Pitch-Shape-Affect-7,Pitch-Pulse-L,Pitch-Pulse-H,Color-YB-H,Color-YB-L,0
33,34.0,4911.0,aAq5dCWALp,Pitch-Shape-Affect-7,Brightness-Squares-L,Brightness-Squares-H,Affect-EB-H,Affect-EB-L,1
34,35.0,5524.0,aAq5dCWALp,Pitch-Shape-Affect-7,Shape-BK3-H,Shape-BK3-L,Pitch-Pulse-H,Pitch-Pulse-L,1
35,36.0,4788.0,aAq5dCWALp,Pitch-Shape-Affect-7,Affect-PD-H,Affect-PD-L,Color-YB-L,Color-YB-H,1
36,37.0,9127.0,aAq5dCWALp,Pitch-Shape-Affect-7,Noise-Piano-H,Noise-Piano-L,Pitch-Tone-L,Pitch-Tone-H,1
37,38.0,2683.0,aAq5dCWALp,Pitch-Shape-Affect-7,Shape-BK1-H,Shape-BK1-L,Color-YB-L,Color-YB-H,1
38,39.0,6691.0,aAq5dCWALp,Pitch-Shape-Affect-7,Shape-BK3-H,Shape-BK3-L,Noise-Piano-H,Noise-Piano-L,0
39,40.0,6174.0,aAq5dCWALp,Pitch-Shape-Affect-7,Affect-HS-L,Affect-HS-H,Pitch-Tone-L,Pitch-Tone-H,1
40,41.0,5035.0,aAq5dCWALp,Pitch-Shape-Affect-7,Amp-Hum-H,Amp-Hum-L,Affect-HS-L,Affect-HS-H,1
41,42.0,4316.0,aAq5dCWALp,Pitch-Shape-Affect-7,Affect-HS-H,Affect-HS-L,Shape-BK4-L,Shape-BK4-H,0
42,43.0,3927.0,aAq5dCWALp,Pitch-Shape-Affect-7,Size-Triangles-H,Size-Triangles-L,Affect-HS-H,Affect-HS-L,0
43,44.0,4016.0,aAq5dCWALp,Pitch-Shape-Affect-7,Shape-BK1-L,Shape-BK1-H,Speed-SP1-H,Speed-SP1-L,1
44,45.0,3532.0,aAq5dCWALp,Pitch-Shape-Affect-7,Color-YB-H,Color-YB-L,Affect-HS-H,Affect-HS-L,0
45,46.0,13639.0,aAq5dCWALp,Pitch-Shape-Affect-7,Noise-Piano-H,Noise-Piano-L,Pitch-Hum-H,Pitch-Hum-L,0
46,47.0,5199.0,aAq5dCWALp,Pitch-Shape-Affect-7,Affect-PD-H,Affect-PD-L,Size-Triangles-H,Size-Triangles-L,1
47,48.0,6054.0,aAq5dCWALp,Pitch-Shape-Affect-7,Shape-BK3-H,Shape-BK3-L,Pitch-Tone-H,Pitch-Tone-L,0
48,49.0,5344.0,aAq5dCWALp,Pitch-Shape-Affect-7,Pitch-Piano-H,Pitch-Piano-L,Color-YB-H,Color-YB-L,0
49,50.0,7996.0,aAq5dCWALp,Pitch-Shape-Affect-7,Amp-Hum-L,Amp-Hum-H,Shape-BK4-L,Shape-BK4-H,0
50,51.0,4838.0,aAq5dCWALp,Pitch-Shape-Affect-7,Pitch-Pulse-L,Pitch-Pulse-H,Affect-HS-H,Affect-HS-L,1
51,52.0,4285.0,aAq5dCWALp,Pitch-Shape-Affect-7,Color-YB-H,Color-YB-L,Affect-EB-L,Affect-EB-H,1
52,53.0,3004.0,aAq5dCWALp,Pitch-Shape-Affect-7,Shape-BK3-H,Shape-BK3-L,Brightness-Squares-H,Brightness-Squares-L,1
53,54.0,6437.0,aAq5dCWALp,Pitch-Shape-Affect-7,Pitch-Pulse-L,Pitch-Pulse-H,Size-Triangles-L,Size-Triangles-H,0
54,55.0,5583.0,aAq5dCWALp,Pitch-Shape-Affect-7,Pitch-Piano-L,Pitch-Piano-H,Shape-BK3-H,Shape-BK3-L,1
55,56.0,4759.0,aAq5dCWALp,Pitch-Shape-Affect-7,Speed-SP1-L,Speed-SP1-H,Shape-BK2-L,Shape-BK2-H,0
56,57.0,4155.0,aAq5dCWALp,Pitch-Shape-Affect-7,Affect-SC-H,Affect-SC-L,Shape-BK3-H,Shape-BK3-L,0
57,58.0,6134.0,aAq5dCWALp,Pitch-Shape-Affect-7,Amp-Hum-L,Amp-Hum-H,Affect-EB-H,Affect-EB-L,1
58,59.0,4026.0,aAq5dCWALp,Pitch-Shape-Affect-7,Noise-Piano-L,Noise-Piano-H,Shape-BK2-L,Shape-BK2-H,0
59,60.0,6335.0,aAq5dCWALp,Pitch-Shape-Affect-7,Pitch-Pulse-H,Pitch-Pulse-L,Brightness-Squares-L,Brightness-Squares-H,1
60,61.0,5506.0,aAq5dCWALp,Pitch-Shape-Affect-7,Affect-SC-L,Affect-SC-H,Noise-Piano-L,Noise-Piano-H,0
61,62.0,5396.0,aAq5dCWALp,Pitch-Shape-Affect-7,Amp-Hum-L,Amp-Hum-H,Shape-BK2-H,Shape-BK2-L,1
62,63.0,7425.0,aAq5dCWALp,Pitch-Shape-Affect-7,Shape-BK3-L,Shape-BK3-H,Pitch-Hum-L,Pitch-Hum-H,0
63,64.0,5032.0,aAq5dCWALp,Pitch-Shape-Affect-7,Shape-BK1-L,Shape-BK1-H,Pitch-Pulse-L,Pitch-Pulse-H,1
64,65.0,5633.0,aAq5dCWALp,Pitch-Shape-Affect-7,Size-Triangles-H,Size-Triangles-L,Pitch-Hum-H,Pitch-Hum-L,1
65,66.0,6319.0,aAq5dCWALp,Pitch-Shape-Affect-7,Affect-PD-L,Affect-PD-H,Amp-Hum-L,Amp-Hum-H,1
66,67.0,4262.0,aAq5dCWALp,Pitch-Shape-Affect-7,Affect-PD-H,Affect-PD-L,Noise-Piano-L,Noise-Piano-H,0
67,68.0,6576.0,aAq5dCWALp,Pitch-Shape-Affect-7,Affect-HS-L,Affect-HS-H,Pitch-Hum-H,Pitch-Hum-L,0
68,69.0,4553.0,aAq5dCWALp,Pitch-Shape-Affect-7,Pitch-Pulse-H,Pitch-Pulse-L,Shape-BK4-H,Shape-BK4-L,1
69,70.0,3996.0,aAq5dCWALp,Pitch-Shape-Affect-7,Shape-BK1-H,Shape-BK1-L,Affect-HS-H,Affect-HS-L,1
70,71.0,2849.0,aAq5dCWALp,Pitch-Shape-Affect-7,Affect-HS-L,Affect-HS-H,Shape-BK2-H,Shape-BK2-L,0
71,72.0,4241.0,aAq5dCWALp,Pitch-Shape-Affect-7,Brightness-Squares-L,Brightness-Squares-H,Shape-BK4-H,Shape-BK4-L,0
72,73.0,4616.0,aAq5dCWALp,Pitch-Shape-Affect-7,Noise-Piano-H,Noise-Piano-L,Affect-HS-H,Affect-HS-L,1
73,74.0,8162.0,aAq5dCWALp,Pitch-Shape-Affect-7,Shape-BK3-L,Shape-BK3-H,Amp-Hum-H,Amp-Hum-L,1
74,75.0,3350.0,aAq5dCWALp,Pitch-Shape-Affect-7,Shape-BK3-L,Shape-BK3-H,Affect-HS-L,Affect-HS-H,1
75,76.0,4439.0,aAq5dCWALp,Pitch-Shape-Affect-7,Size-Triangles-L,Size-Triangles-H,Shape-BK4-L,Shape-BK4-H,1
76,77.0,3972.0,aAq5dCWALp,Pitch-Shape-Affect-7,Speed-SP1-H,Speed-SP1-L,Affect-HS-L,Affect-HS-H,1
77,78.0,12843.0,aAq5dCWALp,Pitch-Shape-Affect-7,Pitch-Piano-L,Pitch-Piano-H,Speed-SP1-H,Speed-SP1-L,0
78,79.0,4330.0,aAq5dCWALp,Pitch-Shape-Affect-7,Affect-PD-H,Affect-PD-L,Pitch-Pulse-H,Pitch-Pulse-L,0
79,80.0,4947.0,aAq5dCWALp,Pitch-Shape-Affect-7,Pitch-Piano-L,Pitch-Piano-H,Brightness-Squares-H,Brightness-Squares-L,0
80,81.0,9152.0,aAq5dCWALp,Pitch-Shape-Affect-7,Speed-SP1-L,Speed-SP1-H,Affect-EB-H,Affect-EB-L,1
81,82.0,3489.0,aAq5dCWALp,Pitch-Shape-Affect-7,Shape-BK3-L,Shape-BK3-H,Affect-HS-H,Affect-HS-L,0
82,83.0,3386.0,aAq5dCWALp,Pitch-Shape-Affect-7,Affect-SC-H,Affect-SC-L,Speed-SP1-H,Speed-SP1-L,0
83,84.0,7498.0,aAq5dCWALp,Pitch-Shape-Affect-7,Speed-SP1-H,Speed-SP1-L,Pitch-Hum-L,Pitch-Hum-H,0
84,85.0,2612.0,aAq5dCWALp,Pitch-Shape-Affect-7,Color-YB-H,Color-YB-L,Shape-BK4-L,Shape-BK4-H,1
