,trialNum,rt,subject,condition,InducerL,InducerR,ConcurrentL,ConcurrentR,choice
0,1.0,3862.0,09NhHdFy31,Color-33,Shape-BK3-L,Shape-BK3-H,Color-RY-L,Color-RY-H,1
1,2.0,5850.0,09NhHdFy31,Color-33,Color-YB-L,Color-YB-H,Amp-Piano-H,Amp-Piano-L,0
2,3.0,7082.0,09NhHdFy31,Color-33,Speed-SP2-L,Speed-SP2-H,Color-YB-H,Color-YB-L,0
3,4.0,13475.0,09NhHdFy31,Color-33,Shape-BK3-L,Shape-BK3-H,Color-YB-H,Color-YB-L,0
4,5.0,4812.0,09NhHdFy31,Color-33,Color-YB-L,Color-YB-H,Pitch-Tone-H,Pitch-Tone-L,0
5,6.0,2751.0,09NhHdFy31,Color-33,Color-RY-L,Color-RY-H,Shape-BK3-L,Shape-BK3-H,0
6,7.0,5446.0,09NhHdFy31,Color-33,Color-RB-H,Color-RB-L,Noise-Hum-H,Noise-Hum-L,1
7,8.0,3478.0,09NhHdFy31,Color-33,Color-RB-H,Color-RB-L,Amp-Piano-H,Amp-Piano-L,1
8,9.0,4590.0,09NhHdFy31,Color-33,Pitch-Tone-L,Pitch-Tone-H,Color-RY-L,Color-RY-H,0
9,10.0,1979.0,09NhHdFy31,Color-33,Color-RG-H,Color-RG-L,Shape-BK3-L,Shape-BK3-H,0
10,11.0,4879.0,09NhHdFy31,Color-33,Noise-Hum-L,Noise-Hum-H,Color-YB-H,Color-YB-L,0
11,12.0,8262.0,09NhHdFy31,Color-33,Color-YB-L,Color-YB-H,Shape-BK3-H,Shape-BK3-L,1
12,13.0,24292.0,09NhHdFy31,Color-33,Color-RG-H,Color-RG-L,Affect-SC-L,Affect-SC-H,1
13,14.0,1705.0,09NhHdFy31,Color-33,Shape-BK3-H,Shape-BK3-L,Color-RB-H,Color-RB-L,0
14,15.0,3796.0,09NhHdFy31,Color-33,Noise-Hum-H,Noise-Hum-L,Color-RB-H,Color-RB-L,1
15,16.0,2917.0,09NhHdFy31,Color-33,Color-YB-L,Color-YB-H,Affect-SC-H,Affect-SC-L,0
16,17.0,3238.0,09NhHdFy31,Color-33,Pitch-Tone-L,Pitch-Tone-H,Color-YB-H,Color-YB-L,0
17,18.0,4164.0,09NhHdFy31,Color-33,Color-RB-H,Color-RB-L,Affect-SC-H,Affect-SC-L,1
18,19.0,2198.0,09NhHdFy31,Color-33,Color-RY-L,Color-RY-H,Speed-SP2-L,Speed-SP2-H,0
19,20.0,1304.0,09NhHdFy31,Color-33,Shape-BK3-H,Shape-BK3-L,Color-RG-L,Color-RG-H,1
20,21.0,2770.0,09NhHdFy31,Color-33,Color-RB-H,Color-RB-L,Pitch-Tone-H,Pitch-Tone-L,0
21,22.0,1714.0,09NhHdFy31,Color-33,Size-Circles-H,Size-Circles-L,Color-RG-L,Color-RG-H,1
22,23.0,1360.0,09NhHdFy31,Color-33,Affect-SC-H,Affect-SC-L,Color-RB-H,Color-RB-L,0
23,24.0,1691.0,09NhHdFy31,Color-33,Color-RG-H,Color-RG-L,Brightness-Squares-L,Brightness-Squares-H,1
24,25.0,1666.0,09NhHdFy31,Color-33,Speed-SP2-H,Speed-SP2-L,Color-RG-L,Color-RG-H,0
25,26.0,1381.0,09NhHdFy31,Color-33,Color-RG-H,Color-RG-L,Speed-SP2-L,Speed-SP2-H,1
26,27.0,2870.0,09NhHdFy31,Color-33,Color-RG-H,Color-RG-L,Pitch-Tone-L,Pitch-Tone-H,1
27,28.0,1638.0,09NhHdFy31,Color-33,Size-Circles-L,Size-Circles-H,Color-YB-H,Color-YB-L,0
28,29.0,1230.0,09NhHdFy31,Color-33,Brightness-Squares-L,Brightness-Squares-H,Color-YB-H,Color-YB-L,1
29,30.0,1519.0,09NhHdFy31,Color-33,Affect-SC-L,Affect-SC-H,Color-RY-L,Color-RY-H,0
30,31.0,1185.0,09NhHdFy31,Color-33,Color-RY-L,Color-RY-H,Brightness-Squares-L,Brightness-Squares-H,0
31,32.0,3654.0,09NhHdFy31,Color-33,Pitch-Tone-H,Pitch-Tone-L,Color-RG-L,Color-RG-H,1
32,33.0,1503.0,09NhHdFy31,Color-33,Brightness-Squares-H,Brightness-Squares-L,Color-RB-H,Color-RB-L,0
33,34.0,1297.0,09NhHdFy31,Color-33,Speed-SP2-H,Speed-SP2-L,Color-RB-H,Color-RB-L,1
34,35.0,1050.0,09NhHdFy31,Color-33,Color-RB-H,Color-RB-L,Speed-SP2-H,Speed-SP2-L,0
35,36.0,32353.0,09NhHdFy31,Color-33,Noise-Hum-L,Noise-Hum-H,Color-RY-L,Color-RY-H,0
36,37.0,2194.0,09NhHdFy31,Color-33,Affect-SC-L,Affect-SC-H,Color-YB-H,Color-YB-L,0
37,38.0,4457.0,09NhHdFy31,Color-33,Pitch-Tone-H,Pitch-Tone-L,Color-RB-H,Color-RB-L,1
38,39.0,1450.0,09NhHdFy31,Color-33,Size-Circles-L,Size-Circles-H,Color-RY-L,Color-RY-H,0
39,40.0,1288.0,09NhHdFy31,Color-33,Brightness-Squares-H,Brightness-Squares-L,Color-RG-L,Color-RG-H,1
40,41.0,1502.0,09NhHdFy31,Color-33,Color-RB-H,Color-RB-L,Size-Circles-H,Size-Circles-L,0
41,42.0,5825.0,09NhHdFy31,Color-33,Amp-Piano-H,Amp-Piano-L,Color-RG-L,Color-RG-H,1
42,43.0,3150.0,09NhHdFy31,Color-33,Amp-Piano-L,Amp-Piano-H,Color-YB-H,Color-YB-L,0
43,44.0,3822.0,09NhHdFy31,Color-33,Speed-SP2-L,Speed-SP2-H,Color-RY-L,Color-RY-H,0
44,45.0,1505.0,09NhHdFy31,Color-33,Color-RG-H,Color-RG-L,Size-Circles-L,Size-Circles-H,1
45,46.0,7048.0,09NhHdFy31,Color-33,Color-RY-L,Color-RY-H,Amp-Piano-L,Amp-Piano-H,0
46,47.0,1633.0,09NhHdFy31,Color-33,Brightness-Squares-L,Brightness-Squares-H,Color-RY-L,Color-RY-H,1
47,48.0,2819.0,09NhHdFy31,Color-33,Color-RY-L,Color-RY-H,Affect-SC-L,Affect-SC-H,0
48,49.0,1506.0,09NhHdFy31,Color-33,Color-RY-L,Color-RY-H,Size-Circles-L,Size-Circles-H,0
49,50.0,3349.0,09NhHdFy31,Color-33,Color-RY-L,Color-RY-H,Pitch-Tone-L,Pitch-Tone-H,0
50,51.0,1369.0,09NhHdFy31,Color-33,Size-Circles-H,Size-Circles-L,Color-RB-H,Color-RB-L,1
51,52.0,5303.0,09NhHdFy31,Color-33,Color-RY-L,Color-RY-H,Noise-Hum-L,Noise-Hum-H,0
52,53.0,3437.0,09NhHdFy31,Color-33,Noise-Hum-H,Noise-Hum-L,Color-RG-L,Color-RG-H,1
53,54.0,1451.0,09NhHdFy31,Color-33,Color-RB-H,Color-RB-L,Shape-BK3-H,Shape-BK3-L,0
54,55.0,1247.0,09NhHdFy31,Color-33,Color-RB-H,Color-RB-L,Brightness-Squares-H,Brightness-Squares-L,1
55,56.0,3903.0,09NhHdFy31,Color-33,Amp-Piano-H,Amp-Piano-L,Color-RB-H,Color-RB-L,0
56,57.0,3246.0,09NhHdFy31,Color-33,Color-YB-L,Color-YB-H,Noise-Hum-H,Noise-Hum-L,0
57,58.0,2044.0,09NhHdFy31,Color-33,Color-YB-L,Color-YB-H,Brightness-Squares-H,Brightness-Squares-L,0
58,59.0,2575.0,09NhHdFy31,Color-33,Color-YB-L,Color-YB-H,Speed-SP2-H,Speed-SP2-L,0
59,60.0,2854.0,09NhHdFy31,Color-33,Color-YB-L,Color-YB-H,Size-Circles-H,Size-Circles-L,0
60,61.0,4017.0,09NhHdFy31,Color-33,Amp-Piano-L,Amp-Piano-H,Color-RY-L,Color-RY-H,0
61,62.0,3534.0,09NhHdFy31,Color-33,Color-RG-H,Color-RG-L,Noise-Hum-L,Noise-Hum-H,1
62,63.0,4191.0,09NhHdFy31,Color-33,Affect-SC-H,Affect-SC-L,Color-RG-L,Color-RG-H,1
63,64.0,3045.0,09NhHdFy31,Color-33,Color-RG-H,Color-RG-L,Amp-Piano-L,Amp-Piano-H,1
0,1.0,8782.0,0ITFbU0J3v,Color-29,Pitch-Piano-H,Pitch-Piano-L,Color-YB-H,Color-YB-L,0
1,2.0,6892.0,0ITFbU0J3v,Color-29,Affect-PD-L,Affect-PD-H,Color-RB-L,Color-RB-H,0
2,3.0,4366.0,0ITFbU0J3v,Color-29,Speed-SP3-H,Speed-SP3-L,Color-YB-H,Color-YB-L,0
3,4.0,10308.0,0ITFbU0J3v,Color-29,Pitch-Piano-L,Pitch-Piano-H,Color-RG-H,Color-RG-L,1
4,5.0,4244.0,0ITFbU0J3v,Color-29,Color-RY-H,Color-RY-L,Brightness-Circles-L,Brightness-Circles-H,0
5,6.0,6117.0,0ITFbU0J3v,Color-29,Color-YB-H,Color-YB-L,Pitch-Piano-H,Pitch-Piano-L,1
6,7.0,5846.0,0ITFbU0J3v,Color-29,Size-Squares-L,Size-Squares-H,Color-RG-H,Color-RG-L,1
7,8.0,3564.0,0ITFbU0J3v,Color-29,Color-YB-H,Color-YB-L,Speed-SP3-H,Speed-SP3-L,0
8,9.0,3526.0,0ITFbU0J3v,Color-29,Color-RG-L,Color-RG-H,Shape-BK4-H,Shape-BK4-L,1
9,10.0,4261.0,0ITFbU0J3v,Color-29,Speed-SP3-L,Speed-SP3-H,Color-RG-H,Color-RG-L,0
10,11.0,5717.0,0ITFbU0J3v,Color-29,Color-YB-H,Color-YB-L,Amp-Hum-H,Amp-Hum-L,1
11,12.0,4229.0,0ITFbU0J3v,Color-29,Shape-BK4-H,Shape-BK4-L,Color-RY-L,Color-RY-H,1
12,13.0,5659.0,0ITFbU0J3v,Color-29,Noise-Tone-L,Noise-Tone-H,Color-RG-H,Color-RG-L,1
13,14.0,6188.0,0ITFbU0J3v,Color-29,Color-YB-H,Color-YB-L,Noise-Tone-H,Noise-Tone-L,1
14,15.0,3804.0,0ITFbU0J3v,Color-29,Color-RB-L,Color-RB-H,Noise-Tone-L,Noise-Tone-H,0
15,16.0,4101.0,0ITFbU0J3v,Color-29,Speed-SP3-L,Speed-SP3-H,Color-RB-L,Color-RB-H,0
16,17.0,7869.0,0ITFbU0J3v,Color-29,Affect-PD-L,Affect-PD-H,Color-RG-H,Color-RG-L,0
17,18.0,5252.0,0ITFbU0J3v,Color-29,Noise-Tone-L,Noise-Tone-H,Color-RB-L,Color-RB-H,0
18,19.0,8716.0,0ITFbU0J3v,Color-29,Color-RG-L,Color-RG-H,Noise-Tone-H,Noise-Tone-L,1
19,20.0,4660.0,0ITFbU0J3v,Color-29,Size-Squares-L,Size-Squares-H,Color-RB-L,Color-RB-H,1
20,21.0,3390.0,0ITFbU0J3v,Color-29,Speed-SP3-H,Speed-SP3-L,Color-RY-L,Color-RY-H,0
21,22.0,4244.0,0ITFbU0J3v,Color-29,Color-RB-L,Color-RB-H,Amp-Hum-L,Amp-Hum-H,1
22,23.0,7500.0,0ITFbU0J3v,Color-29,Amp-Hum-H,Amp-Hum-L,Color-RY-L,Color-RY-H,1
23,24.0,4868.0,0ITFbU0J3v,Color-29,Color-RB-L,Color-RB-H,Pitch-Piano-L,Pitch-Piano-H,0
24,25.0,4702.0,0ITFbU0J3v,Color-29,Color-RG-L,Color-RG-H,Brightness-Circles-H,Brightness-Circles-L,0
25,26.0,2637.0,0ITFbU0J3v,Color-29,Brightness-Circles-H,Brightness-Circles-L,Color-YB-H,Color-YB-L,0
26,27.0,3693.0,0ITFbU0J3v,Color-29,Color-RG-L,Color-RG-H,Affect-PD-H,Affect-PD-L,0
27,28.0,2654.0,0ITFbU0J3v,Color-29,Shape-BK4-L,Shape-BK4-H,Color-RB-L,Color-RB-H,0
28,29.0,7579.0,0ITFbU0J3v,Color-29,Color-RG-L,Color-RG-H,Pitch-Piano-H,Pitch-Piano-L,1
29,30.0,3933.0,0ITFbU0J3v,Color-29,Size-Squares-H,Size-Squares-L,Color-RY-L,Color-RY-H,1
30,31.0,2453.0,0ITFbU0J3v,Color-29,Color-RB-L,Color-RB-H,Shape-BK4-L,Shape-BK4-H,0
31,32.0,7012.0,0ITFbU0J3v,Color-29,Pitch-Piano-H,Pitch-Piano-L,Color-RY-L,Color-RY-H,1
32,33.0,5676.0,0ITFbU0J3v,Color-29,Color-RY-H,Color-RY-L,Pitch-Piano-L,Pitch-Piano-H,1
33,34.0,3957.0,0ITFbU0J3v,Color-29,Affect-PD-H,Affect-PD-L,Color-RY-L,Color-RY-H,0
34,35.0,3412.0,0ITFbU0J3v,Color-29,Color-RG-L,Color-RG-H,Speed-SP3-H,Speed-SP3-L,0
35,36.0,3462.0,0ITFbU0J3v,Color-29,Shape-BK4-H,Shape-BK4-L,Color-YB-H,Color-YB-L,0
36,37.0,6236.0,0ITFbU0J3v,Color-29,Color-RY-H,Color-RY-L,Speed-SP3-L,Speed-SP3-H,0
37,38.0,8964.0,0ITFbU0J3v,Color-29,Amp-Hum-L,Amp-Hum-H,Color-RB-L,Color-RB-H,0
38,39.0,4085.0,0ITFbU0J3v,Color-29,Size-Squares-H,Size-Squares-L,Color-YB-H,Color-YB-L,0
39,40.0,4318.0,0ITFbU0J3v,Color-29,Color-RB-L,Color-RB-H,Brightness-Circles-L,Brightness-Circles-H,1
40,41.0,3893.0,0ITFbU0J3v,Color-29,Color-RB-L,Color-RB-H,Size-Squares-L,Size-Squares-H,0
41,42.0,7405.0,0ITFbU0J3v,Color-29,Noise-Tone-H,Noise-Tone-L,Color-YB-H,Color-YB-L,0
42,43.0,2892.0,0ITFbU0J3v,Color-29,Brightness-Circles-H,Brightness-Circles-L,Color-RY-L,Color-RY-H,0
43,44.0,4188.0,0ITFbU0J3v,Color-29,Color-YB-H,Color-YB-L,Affect-PD-H,Affect-PD-L,1
44,45.0,4869.0,0ITFbU0J3v,Color-29,Color-RY-H,Color-RY-L,Size-Squares-L,Size-Squares-H,1
45,46.0,3702.0,0ITFbU0J3v,Color-29,Affect-PD-H,Affect-PD-L,Color-YB-H,Color-YB-L,0
46,47.0,11452.0,0ITFbU0J3v,Color-29,Pitch-Piano-L,Pitch-Piano-H,Color-RB-L,Color-RB-H,0
47,48.0,3316.0,0ITFbU0J3v,Color-29,Color-RG-L,Color-RG-H,Size-Squares-H,Size-Squares-L,1
48,49.0,3102.0,0ITFbU0J3v,Color-29,Color-YB-H,Color-YB-L,Shape-BK4-H,Shape-BK4-L,0
49,50.0,5813.0,0ITFbU0J3v,Color-29,Amp-Hum-L,Amp-Hum-H,Color-RG-H,Color-RG-L,1
50,51.0,7588.0,0ITFbU0J3v,Color-29,Color-RB-L,Color-RB-H,Speed-SP3-L,Speed-SP3-H,1
51,52.0,4554.0,0ITFbU0J3v,Color-29,Amp-Hum-H,Amp-Hum-L,Color-YB-H,Color-YB-L,0
52,53.0,20908.0,0ITFbU0J3v,Color-29,Color-RG-L,Color-RG-H,Amp-Hum-H,Amp-Hum-L,1
53,54.0,2486.0,0ITFbU0J3v,Color-29,Brightness-Circles-L,Brightness-Circles-H,Color-RB-L,Color-RB-H,0
54,55.0,3022.0,0ITFbU0J3v,Color-29,Color-YB-H,Color-YB-L,Size-Squares-H,Size-Squares-L,1
55,56.0,2718.0,0ITFbU0J3v,Color-29,Color-YB-H,Color-YB-L,Brightness-Circles-H,Brightness-Circles-L,0
56,57.0,2518.0,0ITFbU0J3v,Color-29,Shape-BK4-L,Shape-BK4-H,Color-RG-H,Color-RG-L,1
57,58.0,3342.0,0ITFbU0J3v,Color-29,Color-RB-L,Color-RB-H,Affect-PD-L,Affect-PD-H,1
58,59.0,4916.0,0ITFbU0J3v,Color-29,Brightness-Circles-L,Brightness-Circles-H,Color-RG-H,Color-RG-L,1
59,60.0,5875.0,0ITFbU0J3v,Color-29,Noise-Tone-H,Noise-Tone-L,Color-RY-L,Color-RY-H,1
60,61.0,5284.0,0ITFbU0J3v,Color-29,Color-RY-H,Color-RY-L,Noise-Tone-L,Noise-Tone-H,1
61,62.0,6068.0,0ITFbU0J3v,Color-29,Color-RY-H,Color-RY-L,Amp-Hum-L,Amp-Hum-H,1
62,63.0,4845.0,0ITFbU0J3v,Color-29,Color-RY-H,Color-RY-L,Affect-PD-L,Affect-PD-H,0
63,64.0,6358.0,0ITFbU0J3v,Color-29,Color-RY-H,Color-RY-L,Shape-BK4-L,Shape-BK4-H,1
0,1.0,4650.0,0Lu3AE4Qvo,Color-37,Color-YB-H,Color-YB-L,Size-Diamonds-L,Size-Diamonds-H,0
1,2.0,12772.0,0Lu3AE4Qvo,Color-37,Amp-Hum-H,Amp-Hum-L,Color-RY-H,Color-RY-L,0
2,3.0,5499.0,0Lu3AE4Qvo,Color-37,Color-RB-L,Color-RB-H,Brightness-Triangles-L,Brightness-Triangles-H,0
3,4.0,5214.0,0Lu3AE4Qvo,Color-37,Speed-SP2-H,Speed-SP2-L,Color-RY-H,Color-RY-L,1
4,5.0,9139.0,0Lu3AE4Qvo,Color-37,Pitch-Tone-L,Pitch-Tone-H,Color-RB-L,Color-RB-H,0
5,6.0,5842.0,0Lu3AE4Qvo,Color-37,Color-RG-L,Color-RG-H,Shape-BK2-H,Shape-BK2-L,1
6,7.0,7753.0,0Lu3AE4Qvo,Color-37,Pitch-Tone-L,Pitch-Tone-H,Color-RG-H,Color-RG-L,0
7,8.0,5501.0,0Lu3AE4Qvo,Color-37,Color-YB-H,Color-YB-L,Brightness-Triangles-L,Brightness-Triangles-H,1
8,9.0,15542.0,0Lu3AE4Qvo,Color-37,Pitch-Tone-H,Pitch-Tone-L,Color-YB-L,Color-YB-H,1
9,10.0,9591.0,0Lu3AE4Qvo,Color-37,Color-RG-L,Color-RG-H,Amp-Hum-H,Amp-Hum-L,1
10,11.0,5958.0,0Lu3AE4Qvo,Color-37,Brightness-Triangles-H,Brightness-Triangles-L,Color-RY-H,Color-RY-L,1
11,12.0,7145.0,0Lu3AE4Qvo,Color-37,Noise-Tone-L,Noise-Tone-H,Color-RB-L,Color-RB-H,0
12,13.0,2882.0,0Lu3AE4Qvo,Color-37,Color-RY-H,Color-RY-L,Brightness-Triangles-H,Brightness-Triangles-L,0
13,14.0,7332.0,0Lu3AE4Qvo,Color-37,Color-RB-L,Color-RB-H,Noise-Tone-L,Noise-Tone-H,1
14,15.0,8555.0,0Lu3AE4Qvo,Color-37,Noise-Tone-H,Noise-Tone-L,Color-RY-H,Color-RY-L,0
15,16.0,4654.0,0Lu3AE4Qvo,Color-37,Size-Diamonds-H,Size-Diamonds-L,Color-RY-H,Color-RY-L,1
16,17.0,4316.0,0Lu3AE4Qvo,Color-37,Color-RY-H,Color-RY-L,Shape-BK2-H,Shape-BK2-L,1
17,18.0,7826.0,0Lu3AE4Qvo,Color-37,Size-Diamonds-L,Size-Diamonds-H,Color-RB-L,Color-RB-H,0
18,19.0,5883.0,0Lu3AE4Qvo,Color-37,Shape-BK2-L,Shape-BK2-H,Color-RB-L,Color-RB-H,0
19,20.0,3847.0,0Lu3AE4Qvo,Color-37,Brightness-Triangles-H,Brightness-Triangles-L,Color-YB-L,Color-YB-H,1
20,21.0,6039.0,0Lu3AE4Qvo,Color-37,Affect-PD-L,Affect-PD-H,Color-RG-H,Color-RG-L,0
21,22.0,4988.0,0Lu3AE4Qvo,Color-37,Brightness-Triangles-L,Brightness-Triangles-H,Color-RG-H,Color-RG-L,1
22,23.0,5410.0,0Lu3AE4Qvo,Color-37,Amp-Hum-L,Amp-Hum-H,Color-RG-H,Color-RG-L,1
23,24.0,7802.0,0Lu3AE4Qvo,Color-37,Speed-SP2-L,Speed-SP2-H,Color-RB-L,Color-RB-H,1
24,25.0,3538.0,0Lu3AE4Qvo,Color-37,Color-YB-H,Color-YB-L,Speed-SP2-L,Speed-SP2-H,1
25,26.0,6490.0,0Lu3AE4Qvo,Color-37,Color-RB-L,Color-RB-H,Speed-SP2-L,Speed-SP2-H,0
26,27.0,6537.0,0Lu3AE4Qvo,Color-37,Amp-Hum-H,Amp-Hum-L,Color-YB-L,Color-YB-H,1
27,28.0,4882.0,0Lu3AE4Qvo,Color-37,Size-Diamonds-H,Size-Diamonds-L,Color-YB-L,Color-YB-H,0
28,29.0,4804.0,0Lu3AE4Qvo,Color-37,Color-YB-H,Color-YB-L,Amp-Hum-L,Amp-Hum-H,1
29,30.0,4739.0,0Lu3AE4Qvo,Color-37,Color-YB-H,Color-YB-L,Affect-PD-L,Affect-PD-H,1
30,31.0,7859.0,0Lu3AE4Qvo,Color-37,Color-RY-H,Color-RY-L,Amp-Hum-H,Amp-Hum-L,0
31,32.0,4801.0,0Lu3AE4Qvo,Color-37,Color-RB-L,Color-RB-H,Affect-PD-L,Affect-PD-H,1
32,33.0,4105.0,0Lu3AE4Qvo,Color-37,Shape-BK2-L,Shape-BK2-H,Color-RG-H,Color-RG-L,1
33,34.0,3629.0,0Lu3AE4Qvo,Color-37,Color-RG-L,Color-RG-H,Size-Diamonds-H,Size-Diamonds-L,1
34,35.0,3858.0,0Lu3AE4Qvo,Color-37,Color-RG-L,Color-RG-H,Speed-SP2-H,Speed-SP2-L,0
35,36.0,7497.0,0Lu3AE4Qvo,Color-37,Color-RG-L,Color-RG-H,Noise-Tone-H,Noise-Tone-L,0
36,37.0,5603.0,0Lu3AE4Qvo,Color-37,Color-RY-H,Color-RY-L,Affect-PD-H,Affect-PD-L,1
37,38.0,9460.0,0Lu3AE4Qvo,Color-37,Color-RY-H,Color-RY-L,Pitch-Tone-H,Pitch-Tone-L,0
38,39.0,5214.0,0Lu3AE4Qvo,Color-37,Color-YB-H,Color-YB-L,Pitch-Tone-L,Pitch-Tone-H,1
39,40.0,6564.0,0Lu3AE4Qvo,Color-37,Noise-Tone-H,Noise-Tone-L,Color-YB-L,Color-YB-H,0
40,41.0,5854.0,0Lu3AE4Qvo,Color-37,Amp-Hum-L,Amp-Hum-H,Color-RB-L,Color-RB-H,0
41,42.0,5675.0,0Lu3AE4Qvo,Color-37,Color-RY-H,Color-RY-L,Noise-Tone-H,Noise-Tone-L,0
42,43.0,10029.0,0Lu3AE4Qvo,Color-37,Color-RB-L,Color-RB-H,Amp-Hum-L,Amp-Hum-H,1
43,44.0,3437.0,0Lu3AE4Qvo,Color-37,Color-YB-H,Color-YB-L,Shape-BK2-L,Shape-BK2-H,1
44,45.0,3548.0,0Lu3AE4Qvo,Color-37,Brightness-Triangles-L,Brightness-Triangles-H,Color-RB-L,Color-RB-H,0
45,46.0,2848.0,0Lu3AE4Qvo,Color-37,Speed-SP2-L,Speed-SP2-H,Color-RG-H,Color-RG-L,0
46,47.0,2724.0,0Lu3AE4Qvo,Color-37,Color-RG-L,Color-RG-H,Brightness-Triangles-H,Brightness-Triangles-L,1
47,48.0,5813.0,0Lu3AE4Qvo,Color-37,Pitch-Tone-H,Pitch-Tone-L,Color-RY-H,Color-RY-L,0
48,49.0,6039.0,0Lu3AE4Qvo,Color-37,Shape-BK2-H,Shape-BK2-L,Color-RY-H,Color-RY-L,1
49,50.0,5536.0,0Lu3AE4Qvo,Color-37,Affect-PD-H,Affect-PD-L,Color-YB-L,Color-YB-H,1
50,51.0,18564.0,0Lu3AE4Qvo,Color-37,Color-RG-L,Color-RG-H,Affect-PD-H,Affect-PD-L,0
51,52.0,4725.0,0Lu3AE4Qvo,Color-37,Color-RY-H,Color-RY-L,Size-Diamonds-H,Size-Diamonds-L,0
52,53.0,4562.0,0Lu3AE4Qvo,Color-37,Size-Diamonds-L,Size-Diamonds-H,Color-RG-H,Color-RG-L,1
53,54.0,10549.0,0Lu3AE4Qvo,Color-37,Color-RG-L,Color-RG-H,Pitch-Tone-H,Pitch-Tone-L,1
54,55.0,18148.0,0Lu3AE4Qvo,Color-37,Affect-PD-L,Affect-PD-H,Color-RB-L,Color-RB-H,1
55,56.0,20160.0,0Lu3AE4Qvo,Color-37,Color-RY-H,Color-RY-L,Speed-SP2-H,Speed-SP2-L,0
56,57.0,2682.0,0Lu3AE4Qvo,Color-37,Color-RB-L,Color-RB-H,Shape-BK2-L,Shape-BK2-H,0
57,58.0,18294.0,0Lu3AE4Qvo,Color-37,Affect-PD-H,Affect-PD-L,Color-RY-H,Color-RY-L,1
58,59.0,2848.0,0Lu3AE4Qvo,Color-37,Shape-BK2-H,Shape-BK2-L,Color-YB-L,Color-YB-H,1
59,60.0,5345.0,0Lu3AE4Qvo,Color-37,Speed-SP2-H,Speed-SP2-L,Color-YB-L,Color-YB-H,1
60,61.0,5707.0,0Lu3AE4Qvo,Color-37,Color-RB-L,Color-RB-H,Size-Diamonds-L,Size-Diamonds-H,0
61,62.0,9766.0,0Lu3AE4Qvo,Color-37,Color-RB-L,Color-RB-H,Pitch-Tone-L,Pitch-Tone-H,1
62,63.0,5906.0,0Lu3AE4Qvo,Color-37,Noise-Tone-L,Noise-Tone-H,Color-RG-H,Color-RG-L,0
63,64.0,4494.0,0Lu3AE4Qvo,Color-37,Color-YB-H,Color-YB-L,Noise-Tone-L,Noise-Tone-H,1
0,1.0,6182.0,1tkMMO3MM5,Color-21,Shape-BK2-L,Shape-BK2-H,Color-RG-L,Color-RG-H,0
1,2.0,5346.0,1tkMMO3MM5,Color-21,Color-YB-H,Color-YB-L,Amp-Piano-H,Amp-Piano-L,0
2,3.0,7214.0,1tkMMO3MM5,Color-21,Amp-Piano-L,Amp-Piano-H,Color-RY-H,Color-RY-L,1
3,4.0,7757.0,1tkMMO3MM5,Color-21,Color-RG-L,Color-RG-H,Speed-SP1-L,Speed-SP1-H,0
4,5.0,5174.0,1tkMMO3MM5,Color-21,Pitch-Piano-H,Pitch-Piano-L,Color-YB-H,Color-YB-L,0
5,6.0,8361.0,1tkMMO3MM5,Color-21,Color-RB-H,Color-RB-L,Noise-Piano-L,Noise-Piano-H,1
6,7.0,3725.0,1tkMMO3MM5,Color-21,Color-RG-L,Color-RG-H,Brightness-Squares-L,Brightness-Squares-H,1
7,8.0,4302.0,1tkMMO3MM5,Color-21,Affect-EB-H,Affect-EB-L,Color-YB-H,Color-YB-L,0
8,9.0,5047.0,1tkMMO3MM5,Color-21,Amp-Piano-H,Amp-Piano-L,Color-YB-H,Color-YB-L,0
9,10.0,5476.0,1tkMMO3MM5,Color-21,Pitch-Piano-H,Pitch-Piano-L,Color-RB-L,Color-RB-H,0
10,11.0,2653.0,1tkMMO3MM5,Color-21,Shape-BK2-L,Shape-BK2-H,Color-RY-H,Color-RY-L,1
11,12.0,3423.0,1tkMMO3MM5,Color-21,Speed-SP1-L,Speed-SP1-H,Color-RY-H,Color-RY-L,1
12,13.0,5320.0,1tkMMO3MM5,Color-21,Amp-Piano-L,Amp-Piano-H,Color-RG-L,Color-RG-H,0
13,14.0,8950.0,1tkMMO3MM5,Color-21,Noise-Piano-L,Noise-Piano-H,Color-RG-L,Color-RG-H,0
14,15.0,5468.0,1tkMMO3MM5,Color-21,Color-RY-L,Color-RY-H,Noise-Piano-H,Noise-Piano-L,1
15,16.0,6688.0,1tkMMO3MM5,Color-21,Color-RY-L,Color-RY-H,Pitch-Piano-H,Pitch-Piano-L,1
16,17.0,3205.0,1tkMMO3MM5,Color-21,Color-RB-H,Color-RB-L,Size-Triangles-L,Size-Triangles-H,1
17,18.0,4415.0,1tkMMO3MM5,Color-21,Pitch-Piano-L,Pitch-Piano-H,Color-RG-L,Color-RG-H,1
18,19.0,3070.0,1tkMMO3MM5,Color-21,Color-RY-L,Color-RY-H,Brightness-Squares-H,Brightness-Squares-L,0
19,20.0,3645.0,1tkMMO3MM5,Color-21,Color-YB-H,Color-YB-L,Speed-SP1-H,Speed-SP1-L,0
20,21.0,3181.0,1tkMMO3MM5,Color-21,Brightness-Squares-L,Brightness-Squares-H,Color-RY-H,Color-RY-L,0
21,22.0,3703.0,1tkMMO3MM5,Color-21,Color-RG-L,Color-RG-H,Noise-Piano-L,Noise-Piano-H,0
22,23.0,4901.0,1tkMMO3MM5,Color-21,Color-RY-L,Color-RY-H,Amp-Piano-H,Amp-Piano-L,1
23,24.0,4085.0,1tkMMO3MM5,Color-21,Pitch-Piano-L,Pitch-Piano-H,Color-RY-H,Color-RY-L,0
24,25.0,8051.0,1tkMMO3MM5,Color-21,Noise-Piano-H,Noise-Piano-L,Color-YB-H,Color-YB-L,1
25,26.0,2390.0,1tkMMO3MM5,Color-21,Shape-BK2-H,Shape-BK2-L,Color-YB-H,Color-YB-L,0
26,27.0,3060.0,1tkMMO3MM5,Color-21,Shape-BK2-H,Shape-BK2-L,Color-RB-L,Color-RB-H,1
27,28.0,2686.0,1tkMMO3MM5,Color-21,Color-RB-H,Color-RB-L,Brightness-Squares-L,Brightness-Squares-H,0
28,29.0,2880.0,1tkMMO3MM5,Color-21,Color-RY-L,Color-RY-H,Size-Triangles-H,Size-Triangles-L,1
29,30.0,3199.0,1tkMMO3MM5,Color-21,Color-RB-H,Color-RB-L,Speed-SP1-L,Speed-SP1-H,1
30,31.0,2333.0,1tkMMO3MM5,Color-21,Color-RG-L,Color-RG-H,Size-Triangles-L,Size-Triangles-H,0
31,32.0,2008.0,1tkMMO3MM5,Color-21,Size-Triangles-L,Size-Triangles-H,Color-RG-L,Color-RG-H,0
32,33.0,2625.0,1tkMMO3MM5,Color-21,Color-RB-H,Color-RB-L,Shape-BK2-L,Shape-BK2-H,1
33,34.0,2398.0,1tkMMO3MM5,Color-21,Brightness-Squares-H,Brightness-Squares-L,Color-RB-L,Color-RB-H,0
34,35.0,4047.0,1tkMMO3MM5,Color-21,Brightness-Squares-H,Brightness-Squares-L,Color-YB-H,Color-YB-L,0
35,36.0,1989.0,1tkMMO3MM5,Color-21,Size-Triangles-L,Size-Triangles-H,Color-RY-H,Color-RY-L,1
36,37.0,4255.0,1tkMMO3MM5,Color-21,Color-RG-L,Color-RG-H,Pitch-Piano-L,Pitch-Piano-H,1
37,38.0,2989.0,1tkMMO3MM5,Color-21,Color-RY-L,Color-RY-H,Shape-BK2-H,Shape-BK2-L,1
38,39.0,4034.0,1tkMMO3MM5,Color-21,Affect-EB-L,Affect-EB-H,Color-RG-L,Color-RG-H,0
39,40.0,5130.0,1tkMMO3MM5,Color-21,Noise-Piano-H,Noise-Piano-L,Color-RB-L,Color-RB-H,1
40,41.0,4289.0,1tkMMO3MM5,Color-21,Amp-Piano-H,Amp-Piano-L,Color-RB-L,Color-RB-H,1
41,42.0,3566.0,1tkMMO3MM5,Color-21,Color-RB-H,Color-RB-L,Pitch-Piano-L,Pitch-Piano-H,0
42,43.0,3928.0,1tkMMO3MM5,Color-21,Color-YB-H,Color-YB-L,Noise-Piano-H,Noise-Piano-L,1
43,44.0,3182.0,1tkMMO3MM5,Color-21,Color-RB-H,Color-RB-L,Affect-EB-L,Affect-EB-H,1
44,45.0,2991.0,1tkMMO3MM5,Color-21,Brightness-Squares-L,Brightness-Squares-H,Color-RG-L,Color-RG-H,1
45,46.0,6590.0,1tkMMO3MM5,Color-21,Color-YB-H,Color-YB-L,Pitch-Piano-H,Pitch-Piano-L,1
46,47.0,2996.0,1tkMMO3MM5,Color-21,Color-RG-L,Color-RG-H,Shape-BK2-L,Shape-BK2-H,0
47,48.0,2559.0,1tkMMO3MM5,Color-21,Affect-EB-L,Affect-EB-H,Color-RY-H,Color-RY-L,1
48,49.0,2617.0,1tkMMO3MM5,Color-21,Color-RY-L,Color-RY-H,Speed-SP1-H,Speed-SP1-L,1
49,50.0,2304.0,1tkMMO3MM5,Color-21,Color-RG-L,Color-RG-H,Affect-EB-L,Affect-EB-H,0
50,51.0,2960.0,1tkMMO3MM5,Color-21,Color-RY-L,Color-RY-H,Affect-EB-H,Affect-EB-L,1
51,52.0,2876.0,1tkMMO3MM5,Color-21,Speed-SP1-H,Speed-SP1-L,Color-YB-H,Color-YB-L,0
52,53.0,1662.0,1tkMMO3MM5,Color-21,Color-YB-H,Color-YB-L,Shape-BK2-H,Shape-BK2-L,0
53,54.0,2079.0,1tkMMO3MM5,Color-21,Color-YB-H,Color-YB-L,Size-Triangles-H,Size-Triangles-L,0
54,55.0,3743.0,1tkMMO3MM5,Color-21,Color-RG-L,Color-RG-H,Amp-Piano-L,Amp-Piano-H,0
55,56.0,3189.0,1tkMMO3MM5,Color-21,Color-YB-H,Color-YB-L,Brightness-Squares-H,Brightness-Squares-L,0
56,57.0,5497.0,1tkMMO3MM5,Color-21,Size-Triangles-H,Size-Triangles-L,Color-YB-H,Color-YB-L,0
57,58.0,3037.0,1tkMMO3MM5,Color-21,Speed-SP1-L,Speed-SP1-H,Color-RG-L,Color-RG-H,1
58,59.0,4791.0,1tkMMO3MM5,Color-21,Noise-Piano-L,Noise-Piano-H,Color-RY-H,Color-RY-L,1
59,60.0,2774.0,1tkMMO3MM5,Color-21,Speed-SP1-H,Speed-SP1-L,Color-RB-L,Color-RB-H,1
60,61.0,4061.0,1tkMMO3MM5,Color-21,Color-RB-H,Color-RB-L,Amp-Piano-L,Amp-Piano-H,1
61,62.0,2991.0,1tkMMO3MM5,Color-21,Affect-EB-H,Affect-EB-L,Color-RB-L,Color-RB-H,1
62,63.0,2190.0,1tkMMO3MM5,Color-21,Color-YB-H,Color-YB-L,Affect-EB-H,Affect-EB-L,0
63,64.0,3556.0,1tkMMO3MM5,Color-21,Size-Triangles-H,Size-Triangles-L,Color-RB-L,Color-RB-H,1
0,1.0,7539.0,30fkNVQgN1,Color-44,Affect-PD-L,Affect-PD-H,Color-RG-H,Color-RG-L,0
1,2.0,7324.0,30fkNVQgN1,Color-44,Brightness-Circles-L,Brightness-Circles-H,Color-RG-H,Color-RG-L,0
2,3.0,6230.0,30fkNVQgN1,Color-44,Color-RY-H,Color-RY-L,Shape-BK2-L,Shape-BK2-H,1
3,4.0,10746.0,30fkNVQgN1,Color-44,Color-RB-L,Color-RB-H,Pitch-Piano-L,Pitch-Piano-H,0
4,5.0,7228.0,30fkNVQgN1,Color-44,Color-RY-H,Color-RY-L,Amp-Hum-L,Amp-Hum-H,1
5,6.0,13719.0,30fkNVQgN1,Color-44,Brightness-Circles-H,Brightness-Circles-L,Color-RY-L,Color-RY-H,1
6,7.0,12086.0,30fkNVQgN1,Color-44,Color-RY-H,Color-RY-L,Speed-SP2-L,Speed-SP2-H,1
7,8.0,7253.0,30fkNVQgN1,Color-44,Affect-PD-H,Affect-PD-L,Color-YB-H,Color-YB-L,1
8,9.0,7107.0,30fkNVQgN1,Color-44,Color-YB-H,Color-YB-L,Amp-Hum-H,Amp-Hum-L,0
9,10.0,10614.0,30fkNVQgN1,Color-44,Color-RB-L,Color-RB-H,Size-Squares-L,Size-Squares-H,0
10,11.0,5248.0,30fkNVQgN1,Color-44,Color-RG-L,Color-RG-H,Affect-PD-H,Affect-PD-L,0
11,12.0,8433.0,30fkNVQgN1,Color-44,Amp-Hum-H,Amp-Hum-L,Color-RY-L,Color-RY-H,1
12,13.0,9668.0,30fkNVQgN1,Color-44,Pitch-Piano-H,Pitch-Piano-L,Color-YB-H,Color-YB-L,1
13,14.0,9847.0,30fkNVQgN1,Color-44,Color-RG-L,Color-RG-H,Speed-SP2-H,Speed-SP2-L,1
14,15.0,6641.0,30fkNVQgN1,Color-44,Noise-Tone-L,Noise-Tone-H,Color-RG-H,Color-RG-L,1
15,16.0,4595.0,30fkNVQgN1,Color-44,Affect-PD-H,Affect-PD-L,Color-RY-L,Color-RY-H,0
16,17.0,6363.0,30fkNVQgN1,Color-44,Color-YB-H,Color-YB-L,Brightness-Circles-H,Brightness-Circles-L,1
17,18.0,6630.0,30fkNVQgN1,Color-44,Color-RB-L,Color-RB-H,Speed-SP2-L,Speed-SP2-H,0
18,19.0,6813.0,30fkNVQgN1,Color-44,Color-RG-L,Color-RG-H,Noise-Tone-H,Noise-Tone-L,1
19,20.0,4477.0,30fkNVQgN1,Color-44,Shape-BK2-L,Shape-BK2-H,Color-RB-L,Color-RB-H,0
20,21.0,6994.0,30fkNVQgN1,Color-44,Noise-Tone-H,Noise-Tone-L,Color-YB-H,Color-YB-L,0
21,22.0,12753.0,30fkNVQgN1,Color-44,Pitch-Piano-L,Pitch-Piano-H,Color-RG-H,Color-RG-L,0
22,23.0,4361.0,30fkNVQgN1,Color-44,Color-YB-H,Color-YB-L,Affect-PD-H,Affect-PD-L,1
23,24.0,7576.0,30fkNVQgN1,Color-44,Color-YB-H,Color-YB-L,Speed-SP2-H,Speed-SP2-L,1
24,25.0,6135.0,30fkNVQgN1,Color-44,Color-RY-H,Color-RY-L,Noise-Tone-L,Noise-Tone-H,1
25,26.0,9328.0,30fkNVQgN1,Color-44,Size-Squares-L,Size-Squares-H,Color-RB-L,Color-RB-H,0
26,27.0,8472.0,30fkNVQgN1,Color-44,Speed-SP2-L,Speed-SP2-H,Color-RG-H,Color-RG-L,1
27,28.0,6068.0,30fkNVQgN1,Color-44,Amp-Hum-L,Amp-Hum-H,Color-RG-H,Color-RG-L,1
28,29.0,6893.0,30fkNVQgN1,Color-44,Speed-SP2-L,Speed-SP2-H,Color-RB-L,Color-RB-H,0
29,30.0,4770.0,30fkNVQgN1,Color-44,Color-RB-L,Color-RB-H,Amp-Hum-L,Amp-Hum-H,0
30,31.0,6646.0,30fkNVQgN1,Color-44,Color-YB-H,Color-YB-L,Shape-BK2-H,Shape-BK2-L,0
31,32.0,11588.0,30fkNVQgN1,Color-44,Pitch-Piano-H,Pitch-Piano-L,Color-RY-L,Color-RY-H,1
32,33.0,5226.0,30fkNVQgN1,Color-44,Color-RG-L,Color-RG-H,Size-Squares-H,Size-Squares-L,1
33,34.0,3002.0,30fkNVQgN1,Color-44,Color-RB-L,Color-RB-H,Shape-BK2-L,Shape-BK2-H,0
34,35.0,8903.0,30fkNVQgN1,Color-44,Color-RB-L,Color-RB-H,Brightness-Circles-L,Brightness-Circles-H,0
35,36.0,4818.0,30fkNVQgN1,Color-44,Color-RY-H,Color-RY-L,Brightness-Circles-L,Brightness-Circles-H,1
36,37.0,10027.0,30fkNVQgN1,Color-44,Color-YB-H,Color-YB-L,Pitch-Piano-H,Pitch-Piano-L,1
37,38.0,5467.0,30fkNVQgN1,Color-44,Pitch-Piano-L,Pitch-Piano-H,Color-RB-L,Color-RB-H,1
38,39.0,6206.0,30fkNVQgN1,Color-44,Amp-Hum-H,Amp-Hum-L,Color-YB-H,Color-YB-L,0
39,40.0,4238.0,30fkNVQgN1,Color-44,Amp-Hum-L,Amp-Hum-H,Color-RB-L,Color-RB-H,0
40,41.0,4571.0,30fkNVQgN1,Color-44,Color-RG-L,Color-RG-H,Brightness-Circles-H,Brightness-Circles-L,1
41,42.0,5030.0,30fkNVQgN1,Color-44,Noise-Tone-H,Noise-Tone-L,Color-RY-L,Color-RY-H,1
42,43.0,4845.0,30fkNVQgN1,Color-44,Shape-BK2-H,Shape-BK2-L,Color-RY-L,Color-RY-H,1
43,44.0,7442.0,30fkNVQgN1,Color-44,Color-YB-H,Color-YB-L,Size-Squares-H,Size-Squares-L,0
44,45.0,6390.0,30fkNVQgN1,Color-44,Shape-BK2-H,Shape-BK2-L,Color-YB-H,Color-YB-L,0
45,46.0,9971.0,30fkNVQgN1,Color-44,Color-RG-L,Color-RG-H,Pitch-Piano-H,Pitch-Piano-L,1
46,47.0,4841.0,30fkNVQgN1,Color-44,Color-RB-L,Color-RB-H,Affect-PD-L,Affect-PD-H,1
47,48.0,3156.0,30fkNVQgN1,Color-44,Color-RG-L,Color-RG-H,Shape-BK2-H,Shape-BK2-L,1
48,49.0,4321.0,30fkNVQgN1,Color-44,Color-RY-H,Color-RY-L,Size-Squares-L,Size-Squares-H,1
49,50.0,3637.0,30fkNVQgN1,Color-44,Affect-PD-L,Affect-PD-H,Color-RB-L,Color-RB-H,1
50,51.0,6561.0,30fkNVQgN1,Color-44,Speed-SP2-H,Speed-SP2-L,Color-YB-H,Color-YB-L,0
51,52.0,3318.0,30fkNVQgN1,Color-44,Size-Squares-L,Size-Squares-H,Color-RG-H,Color-RG-L,1
52,53.0,11132.0,30fkNVQgN1,Color-44,Brightness-Circles-L,Brightness-Circles-H,Color-RB-L,Color-RB-H,1
53,54.0,4067.0,30fkNVQgN1,Color-44,Color-RY-H,Color-RY-L,Affect-PD-L,Affect-PD-H,0
54,55.0,6357.0,30fkNVQgN1,Color-44,Speed-SP2-H,Speed-SP2-L,Color-RY-L,Color-RY-H,1
55,56.0,7435.0,30fkNVQgN1,Color-44,Color-YB-H,Color-YB-L,Noise-Tone-H,Noise-Tone-L,0
56,57.0,4061.0,30fkNVQgN1,Color-44,Shape-BK2-L,Shape-BK2-H,Color-RG-H,Color-RG-L,1
57,58.0,4223.0,30fkNVQgN1,Color-44,Noise-Tone-L,Noise-Tone-H,Color-RB-L,Color-RB-H,0
58,59.0,9706.0,30fkNVQgN1,Color-44,Brightness-Circles-H,Brightness-Circles-L,Color-YB-H,Color-YB-L,0
59,60.0,4662.0,30fkNVQgN1,Color-44,Color-RG-L,Color-RG-H,Amp-Hum-H,Amp-Hum-L,1
60,61.0,8555.0,30fkNVQgN1,Color-44,Color-RB-L,Color-RB-H,Noise-Tone-L,Noise-Tone-H,0
61,62.0,7261.0,30fkNVQgN1,Color-44,Color-RY-H,Color-RY-L,Pitch-Piano-L,Pitch-Piano-H,1
62,63.0,4811.0,30fkNVQgN1,Color-44,Size-Squares-H,Size-Squares-L,Color-YB-H,Color-YB-L,0
63,64.0,3291.0,30fkNVQgN1,Color-44,Size-Squares-H,Size-Squares-L,Color-RY-L,Color-RY-H,1
0,1.0,5477.0,36URkIaDpv,Color-7,Color-RY-H,Color-RY-L,Affect-PD-H,Affect-PD-L,1
1,2.0,3721.0,36URkIaDpv,Color-7,Shape-BK3-H,Shape-BK3-L,Color-RY-H,Color-RY-L,1
2,3.0,5748.0,36URkIaDpv,Color-7,Size-Circles-H,Size-Circles-L,Color-RY-H,Color-RY-L,0
3,4.0,6208.0,36URkIaDpv,Color-7,Speed-SP1-L,Speed-SP1-H,Color-RG-H,Color-RG-L,1
4,5.0,4518.0,36URkIaDpv,Color-7,Color-YB-L,Color-YB-H,Brightness-Circles-L,Brightness-Circles-H,0
5,6.0,3340.0,36URkIaDpv,Color-7,Color-RY-H,Color-RY-L,Brightness-Circles-H,Brightness-Circles-L,1
6,7.0,4448.0,36URkIaDpv,Color-7,Speed-SP1-H,Speed-SP1-L,Color-RY-H,Color-RY-L,0
7,8.0,7503.0,36URkIaDpv,Color-7,Color-RY-H,Color-RY-L,Pitch-Piano-H,Pitch-Piano-L,1
8,9.0,5849.0,36URkIaDpv,Color-7,Amp-Piano-L,Amp-Piano-H,Color-YB-L,Color-YB-H,1
9,10.0,7681.0,36URkIaDpv,Color-7,Pitch-Piano-L,Pitch-Piano-H,Color-YB-L,Color-YB-H,0
10,11.0,3487.0,36URkIaDpv,Color-7,Color-RY-H,Color-RY-L,Shape-BK3-H,Shape-BK3-L,0
11,12.0,4537.0,36URkIaDpv,Color-7,Brightness-Circles-H,Brightness-Circles-L,Color-RB-L,Color-RB-H,1
12,13.0,5066.0,36URkIaDpv,Color-7,Color-RB-H,Color-RB-L,Amp-Piano-L,Amp-Piano-H,1
13,14.0,8526.0,36URkIaDpv,Color-7,Color-RY-H,Color-RY-L,Noise-Tone-H,Noise-Tone-L,0
14,15.0,8888.0,36URkIaDpv,Color-7,Color-RG-L,Color-RG-H,Amp-Piano-H,Amp-Piano-L,1
15,16.0,7744.0,36URkIaDpv,Color-7,Size-Circles-H,Size-Circles-L,Color-RB-L,Color-RB-H,1
16,17.0,6628.0,36URkIaDpv,Color-7,Speed-SP1-L,Speed-SP1-H,Color-YB-L,Color-YB-H,1
17,18.0,3159.0,36URkIaDpv,Color-7,Color-RB-H,Color-RB-L,Shape-BK3-L,Shape-BK3-H,0
18,19.0,5332.0,36URkIaDpv,Color-7,Noise-Tone-L,Noise-Tone-H,Color-RG-H,Color-RG-L,0
19,20.0,5305.0,36URkIaDpv,Color-7,Pitch-Piano-L,Pitch-Piano-H,Color-RG-H,Color-RG-L,0
20,21.0,5547.0,36URkIaDpv,Color-7,Color-RY-H,Color-RY-L,Speed-SP1-H,Speed-SP1-L,0
21,22.0,4367.0,36URkIaDpv,Color-7,Color-RG-L,Color-RG-H,Pitch-Piano-H,Pitch-Piano-L,0
22,23.0,5214.0,36URkIaDpv,Color-7,Color-RG-L,Color-RG-H,Speed-SP1-H,Speed-SP1-L,1
23,24.0,5511.0,36URkIaDpv,Color-7,Noise-Tone-H,Noise-Tone-L,Color-RY-H,Color-RY-L,0
24,25.0,3051.0,36URkIaDpv,Color-7,Color-RG-L,Color-RG-H,Shape-BK3-H,Shape-BK3-L,1
25,26.0,2252.0,36URkIaDpv,Color-7,Brightness-Circles-L,Brightness-Circles-H,Color-YB-L,Color-YB-H,1
26,27.0,4098.0,36URkIaDpv,Color-7,Color-RY-H,Color-RY-L,Amp-Piano-H,Amp-Piano-L,0
27,28.0,9188.0,36URkIaDpv,Color-7,Pitch-Piano-H,Pitch-Piano-L,Color-RB-L,Color-RB-H,0
28,29.0,6776.0,36URkIaDpv,Color-7,Color-RG-L,Color-RG-H,Noise-Tone-H,Noise-Tone-L,0
29,30.0,4787.0,36URkIaDpv,Color-7,Color-YB-L,Color-YB-H,Noise-Tone-L,Noise-Tone-H,0
30,31.0,6330.0,36URkIaDpv,Color-7,Amp-Piano-H,Amp-Piano-L,Color-RB-L,Color-RB-H,1
31,32.0,4408.0,36URkIaDpv,Color-7,Size-Circles-L,Size-Circles-H,Color-RG-H,Color-RG-L,1
32,33.0,8181.0,36URkIaDpv,Color-7,Pitch-Piano-H,Pitch-Piano-L,Color-RY-H,Color-RY-L,1
33,34.0,38252.0,36URkIaDpv,Color-7,Color-YB-L,Color-YB-H,Shape-BK3-L,Shape-BK3-H,1
34,35.0,3823.0,36URkIaDpv,Color-7,Affect-PD-L,Affect-PD-H,Color-RG-H,Color-RG-L,0
35,36.0,3638.0,36URkIaDpv,Color-7,Color-RB-H,Color-RB-L,Size-Circles-L,Size-Circles-H,1
36,37.0,3735.0,36URkIaDpv,Color-7,Brightness-Circles-H,Brightness-Circles-L,Color-RY-H,Color-RY-L,1
37,38.0,2858.0,36URkIaDpv,Color-7,Color-YB-L,Color-YB-H,Size-Circles-L,Size-Circles-H,1
38,39.0,3006.0,36URkIaDpv,Color-7,Color-RY-H,Color-RY-L,Size-Circles-H,Size-Circles-L,1
39,40.0,4483.0,36URkIaDpv,Color-7,Affect-PD-H,Affect-PD-L,Color-RY-H,Color-RY-L,1
40,41.0,4222.0,36URkIaDpv,Color-7,Color-RB-H,Color-RB-L,Pitch-Piano-L,Pitch-Piano-H,0
41,42.0,2282.0,36URkIaDpv,Color-7,Shape-BK3-L,Shape-BK3-H,Color-RG-H,Color-RG-L,1
42,43.0,5661.0,36URkIaDpv,Color-7,Color-YB-L,Color-YB-H,Speed-SP1-L,Speed-SP1-H,1
43,44.0,2740.0,36URkIaDpv,Color-7,Color-RG-L,Color-RG-H,Size-Circles-H,Size-Circles-L,1
44,45.0,3664.0,36URkIaDpv,Color-7,Color-RG-L,Color-RG-H,Affect-PD-H,Affect-PD-L,0
45,46.0,6196.0,36URkIaDpv,Color-7,Amp-Piano-L,Amp-Piano-H,Color-RG-H,Color-RG-L,0
46,47.0,2409.0,36URkIaDpv,Color-7,Shape-BK3-L,Shape-BK3-H,Color-YB-L,Color-YB-H,1
47,48.0,4769.0,36URkIaDpv,Color-7,Color-YB-L,Color-YB-H,Amp-Piano-L,Amp-Piano-H,0
48,49.0,2499.0,36URkIaDpv,Color-7,Color-RB-H,Color-RB-L,Brightness-Circles-L,Brightness-Circles-H,1
49,50.0,2512.0,36URkIaDpv,Color-7,Brightness-Circles-L,Brightness-Circles-H,Color-RG-H,Color-RG-L,1
50,51.0,5629.0,36URkIaDpv,Color-7,Color-RB-H,Color-RB-L,Speed-SP1-L,Speed-SP1-H,1
51,52.0,3848.0,36URkIaDpv,Color-7,Affect-PD-H,Affect-PD-L,Color-RB-L,Color-RB-H,0
52,53.0,2932.0,36URkIaDpv,Color-7,Size-Circles-L,Size-Circles-H,Color-YB-L,Color-YB-H,1
53,54.0,2419.0,36URkIaDpv,Color-7,Color-RG-L,Color-RG-H,Brightness-Circles-H,Brightness-Circles-L,1
54,55.0,4086.0,36URkIaDpv,Color-7,Color-YB-L,Color-YB-H,Pitch-Piano-L,Pitch-Piano-H,0
55,56.0,9382.0,36URkIaDpv,Color-7,Amp-Piano-H,Amp-Piano-L,Color-RY-H,Color-RY-L,0
56,57.0,3672.0,36URkIaDpv,Color-7,Color-YB-L,Color-YB-H,Affect-PD-L,Affect-PD-H,1
57,58.0,3571.0,36URkIaDpv,Color-7,Affect-PD-L,Affect-PD-H,Color-YB-L,Color-YB-H,1
58,59.0,2509.0,36URkIaDpv,Color-7,Shape-BK3-H,Shape-BK3-L,Color-RB-L,Color-RB-H,1
59,60.0,3730.0,36URkIaDpv,Color-7,Speed-SP1-H,Speed-SP1-L,Color-RB-L,Color-RB-H,0
60,61.0,5030.0,36URkIaDpv,Color-7,Noise-Tone-L,Noise-Tone-H,Color-YB-L,Color-YB-H,0
61,62.0,4995.0,36URkIaDpv,Color-7,Color-RB-H,Color-RB-L,Noise-Tone-L,Noise-Tone-H,0
62,63.0,4316.0,36URkIaDpv,Color-7,Noise-Tone-H,Noise-Tone-L,Color-RB-L,Color-RB-H,1
63,64.0,3482.0,36URkIaDpv,Color-7,Color-RB-H,Color-RB-L,Affect-PD-L,Affect-PD-H,0
0,1.0,5433.0,5QAvRX2wHQ,Color-31,Pitch-Piano-L,Pitch-Piano-H,Color-YB-L,Color-YB-H,0
1,2.0,7048.0,5QAvRX2wHQ,Color-31,Noise-Piano-H,Noise-Piano-L,Color-RG-H,Color-RG-L,0
2,3.0,5361.0,5QAvRX2wHQ,Color-31,Brightness-Squares-L,Brightness-Squares-H,Color-RB-H,Color-RB-L,0
3,4.0,3356.0,5QAvRX2wHQ,Color-31,Color-YB-L,Color-YB-H,Size-Diamonds-L,Size-Diamonds-H,1
4,5.0,7519.0,5QAvRX2wHQ,Color-31,Shape-BK3-L,Shape-BK3-H,Color-RB-H,Color-RB-L,1
5,6.0,4058.0,5QAvRX2wHQ,Color-31,Color-YB-L,Color-YB-H,Brightness-Squares-L,Brightness-Squares-H,1
6,7.0,5992.0,5QAvRX2wHQ,Color-31,Pitch-Piano-L,Pitch-Piano-H,Color-RB-H,Color-RB-L,1
7,8.0,5585.0,5QAvRX2wHQ,Color-31,Color-RG-H,Color-RG-L,Noise-Piano-H,Noise-Piano-L,0
8,9.0,2497.0,5QAvRX2wHQ,Color-31,Brightness-Squares-L,Brightness-Squares-H,Color-YB-L,Color-YB-H,1
9,10.0,4682.0,5QAvRX2wHQ,Color-31,Size-Diamonds-L,Size-Diamonds-H,Color-RB-H,Color-RB-L,0
10,11.0,5759.0,5QAvRX2wHQ,Color-31,Affect-SC-L,Affect-SC-H,Color-YB-L,Color-YB-H,0
11,12.0,6229.0,5QAvRX2wHQ,Color-31,Color-RY-H,Color-RY-L,Speed-SP2-L,Speed-SP2-H,1
12,13.0,9557.0,5QAvRX2wHQ,Color-31,Color-YB-L,Color-YB-H,Pitch-Piano-L,Pitch-Piano-H,0
13,14.0,5760.0,5QAvRX2wHQ,Color-31,Amp-Tone-H,Amp-Tone-L,Color-RY-L,Color-RY-H,1
14,15.0,5114.0,5QAvRX2wHQ,Color-31,Color-RB-L,Color-RB-H,Speed-SP2-H,Speed-SP2-L,1
15,16.0,302483.0,5QAvRX2wHQ,Color-31,Speed-SP2-H,Speed-SP2-L,Color-RY-L,Color-RY-H,1
16,17.0,4657.0,5QAvRX2wHQ,Color-31,Amp-Tone-H,Amp-Tone-L,Color-RG-H,Color-RG-L,0
17,18.0,3634.0,5QAvRX2wHQ,Color-31,Color-RB-L,Color-RB-H,Shape-BK3-H,Shape-BK3-L,1
18,19.0,2565.0,5QAvRX2wHQ,Color-31,Color-RB-L,Color-RB-H,Brightness-Squares-H,Brightness-Squares-L,0
19,20.0,6867.0,5QAvRX2wHQ,Color-31,Pitch-Piano-H,Pitch-Piano-L,Color-RY-L,Color-RY-H,0
20,21.0,12200.0,5QAvRX2wHQ,Color-31,Color-RY-H,Color-RY-L,Pitch-Piano-L,Pitch-Piano-H,1
21,22.0,5494.0,5QAvRX2wHQ,Color-31,Color-YB-L,Color-YB-H,Noise-Piano-L,Noise-Piano-H,1
22,23.0,5342.0,5QAvRX2wHQ,Color-31,Amp-Tone-L,Amp-Tone-H,Color-YB-L,Color-YB-H,1
23,24.0,5040.0,5QAvRX2wHQ,Color-31,Color-RB-L,Color-RB-H,Amp-Tone-H,Amp-Tone-L,1
24,25.0,4207.0,5QAvRX2wHQ,Color-31,Color-YB-L,Color-YB-H,Affect-SC-L,Affect-SC-H,0
25,26.0,2688.0,5QAvRX2wHQ,Color-31,Color-YB-L,Color-YB-H,Shape-BK3-L,Shape-BK3-H,0
26,27.0,3373.0,5QAvRX2wHQ,Color-31,Affect-SC-H,Affect-SC-L,Color-RG-H,Color-RG-L,0
27,28.0,7454.0,5QAvRX2wHQ,Color-31,Color-RY-H,Color-RY-L,Shape-BK3-L,Shape-BK3-H,0
28,29.0,3758.0,5QAvRX2wHQ,Color-31,Speed-SP2-H,Speed-SP2-L,Color-RG-H,Color-RG-L,1
29,30.0,3520.0,5QAvRX2wHQ,Color-31,Color-YB-L,Color-YB-H,Speed-SP2-L,Speed-SP2-H,0
30,31.0,3527.0,5QAvRX2wHQ,Color-31,Affect-SC-L,Affect-SC-H,Color-RB-H,Color-RB-L,1
31,32.0,2289.0,5QAvRX2wHQ,Color-31,Affect-SC-H,Affect-SC-L,Color-RY-L,Color-RY-H,1
32,33.0,4317.0,5QAvRX2wHQ,Color-31,Color-RG-H,Color-RG-L,Speed-SP2-H,Speed-SP2-L,0
33,34.0,3639.0,5QAvRX2wHQ,Color-31,Color-RB-L,Color-RB-H,Size-Diamonds-H,Size-Diamonds-L,0
34,35.0,5029.0,5QAvRX2wHQ,Color-31,Size-Diamonds-H,Size-Diamonds-L,Color-RG-H,Color-RG-L,1
35,36.0,5162.0,5QAvRX2wHQ,Color-31,Color-RY-H,Color-RY-L,Affect-SC-L,Affect-SC-H,1
36,37.0,6012.0,5QAvRX2wHQ,Color-31,Shape-BK3-L,Shape-BK3-H,Color-YB-L,Color-YB-H,0
37,38.0,3371.0,5QAvRX2wHQ,Color-31,Shape-BK3-H,Shape-BK3-L,Color-RG-H,Color-RG-L,0
38,39.0,2875.0,5QAvRX2wHQ,Color-31,Brightness-Squares-H,Brightness-Squares-L,Color-RG-H,Color-RG-L,1
39,40.0,3711.0,5QAvRX2wHQ,Color-31,Color-RY-H,Color-RY-L,Amp-Tone-L,Amp-Tone-H,1
40,41.0,4614.0,5QAvRX2wHQ,Color-31,Noise-Piano-L,Noise-Piano-H,Color-RB-H,Color-RB-L,1
41,42.0,6951.0,5QAvRX2wHQ,Color-31,Noise-Piano-H,Noise-Piano-L,Color-RY-L,Color-RY-H,0
42,43.0,6107.0,5QAvRX2wHQ,Color-31,Pitch-Piano-H,Pitch-Piano-L,Color-RG-H,Color-RG-L,1
43,44.0,6115.0,5QAvRX2wHQ,Color-31,Color-RB-L,Color-RB-H,Affect-SC-H,Affect-SC-L,1
44,45.0,4328.0,5QAvRX2wHQ,Color-31,Brightness-Squares-H,Brightness-Squares-L,Color-RY-L,Color-RY-H,0
45,46.0,4003.0,5QAvRX2wHQ,Color-31,Color-RY-H,Color-RY-L,Noise-Piano-L,Noise-Piano-H,0
46,47.0,3789.0,5QAvRX2wHQ,Color-31,Color-RY-H,Color-RY-L,Size-Diamonds-L,Size-Diamonds-H,1
47,48.0,3441.0,5QAvRX2wHQ,Color-31,Color-RG-H,Color-RG-L,Brightness-Squares-H,Brightness-Squares-L,1
48,49.0,4475.0,5QAvRX2wHQ,Color-31,Size-Diamonds-L,Size-Diamonds-H,Color-YB-L,Color-YB-H,1
49,50.0,5111.0,5QAvRX2wHQ,Color-31,Color-RG-H,Color-RG-L,Amp-Tone-H,Amp-Tone-L,0
50,51.0,3073.0,5QAvRX2wHQ,Color-31,Color-RG-H,Color-RG-L,Size-Diamonds-H,Size-Diamonds-L,0
51,52.0,7148.0,5QAvRX2wHQ,Color-31,Color-RB-L,Color-RB-H,Pitch-Piano-H,Pitch-Piano-L,0
52,53.0,13146.0,5QAvRX2wHQ,Color-31,Amp-Tone-L,Amp-Tone-H,Color-RB-H,Color-RB-L,1
53,54.0,5832.0,5QAvRX2wHQ,Color-31,Noise-Piano-L,Noise-Piano-H,Color-YB-L,Color-YB-H,1
54,55.0,3911.0,5QAvRX2wHQ,Color-31,Size-Diamonds-H,Size-Diamonds-L,Color-RY-L,Color-RY-H,0
55,56.0,7942.0,5QAvRX2wHQ,Color-31,Color-RB-L,Color-RB-H,Noise-Piano-H,Noise-Piano-L,0
56,57.0,5581.0,5QAvRX2wHQ,Color-31,Color-RG-H,Color-RG-L,Pitch-Piano-H,Pitch-Piano-L,0
57,58.0,2989.0,5QAvRX2wHQ,Color-31,Color-RG-H,Color-RG-L,Affect-SC-H,Affect-SC-L,0
58,59.0,2311.0,5QAvRX2wHQ,Color-31,Color-RY-H,Color-RY-L,Brightness-Squares-L,Brightness-Squares-H,0
59,60.0,6838.0,5QAvRX2wHQ,Color-31,Shape-BK3-H,Shape-BK3-L,Color-RY-L,Color-RY-H,1
60,61.0,4509.0,5QAvRX2wHQ,Color-31,Color-YB-L,Color-YB-H,Amp-Tone-L,Amp-Tone-H,0
61,62.0,2780.0,5QAvRX2wHQ,Color-31,Speed-SP2-L,Speed-SP2-H,Color-YB-L,Color-YB-H,0
62,63.0,4680.0,5QAvRX2wHQ,Color-31,Color-RG-H,Color-RG-L,Shape-BK3-H,Shape-BK3-L,0
63,64.0,3516.0,5QAvRX2wHQ,Color-31,Speed-SP2-L,Speed-SP2-H,Color-RB-H,Color-RB-L,0
0,1.0,10053.0,5Tt8Ss7YLp,Color-24,Noise-Tone-L,Noise-Tone-H,Color-RY-H,Color-RY-L,1
1,2.0,6428.0,5Tt8Ss7YLp,Color-24,Color-RG-L,Color-RG-H,Shape-BK2-L,Shape-BK2-H,0
2,3.0,4904.0,5Tt8Ss7YLp,Color-24,Color-YB-H,Color-YB-L,Size-Diamonds-H,Size-Diamonds-L,0
3,4.0,7153.0,5Tt8Ss7YLp,Color-24,Color-YB-H,Color-YB-L,Pitch-Hum-H,Pitch-Hum-L,0
4,5.0,5879.0,5Tt8Ss7YLp,Color-24,Speed-SP3-H,Speed-SP3-L,Color-YB-H,Color-YB-L,0
5,6.0,3981.0,5Tt8Ss7YLp,Color-24,Speed-SP3-L,Speed-SP3-H,Color-RG-L,Color-RG-H,1
6,7.0,7452.0,5Tt8Ss7YLp,Color-24,Amp-Piano-H,Amp-Piano-L,Color-YB-H,Color-YB-L,1
7,8.0,4321.0,5Tt8Ss7YLp,Color-24,Size-Diamonds-H,Size-Diamonds-L,Color-YB-H,Color-YB-L,0
8,9.0,3078.0,5Tt8Ss7YLp,Color-24,Size-Diamonds-L,Size-Diamonds-H,Color-RY-H,Color-RY-L,1
9,10.0,4732.0,5Tt8Ss7YLp,Color-24,Color-YB-H,Color-YB-L,Amp-Piano-H,Amp-Piano-L,1
10,11.0,5134.0,5Tt8Ss7YLp,Color-24,Noise-Tone-H,Noise-Tone-L,Color-YB-H,Color-YB-L,0
11,12.0,2681.0,5Tt8Ss7YLp,Color-24,Shape-BK2-L,Shape-BK2-H,Color-RG-L,Color-RG-H,0
12,13.0,6110.0,5Tt8Ss7YLp,Color-24,Color-RB-H,Color-RB-L,Affect-EB-L,Affect-EB-H,1
13,14.0,4526.0,5Tt8Ss7YLp,Color-24,Shape-BK2-H,Shape-BK2-L,Color-RB-L,Color-RB-H,1
14,15.0,4209.0,5Tt8Ss7YLp,Color-24,Color-YB-H,Color-YB-L,Speed-SP3-H,Speed-SP3-L,0
15,16.0,5037.0,5Tt8Ss7YLp,Color-24,Color-RB-H,Color-RB-L,Noise-Tone-L,Noise-Tone-H,1
16,17.0,4245.0,5Tt8Ss7YLp,Color-24,Brightness-Triangles-H,Brightness-Triangles-L,Color-RB-L,Color-RB-H,1
17,18.0,3815.0,5Tt8Ss7YLp,Color-24,Color-RY-L,Color-RY-H,Brightness-Triangles-H,Brightness-Triangles-L,1
18,19.0,5127.0,5Tt8Ss7YLp,Color-24,Amp-Piano-L,Amp-Piano-H,Color-RY-H,Color-RY-L,1
19,20.0,4771.0,5Tt8Ss7YLp,Color-24,Speed-SP3-L,Speed-SP3-H,Color-RY-H,Color-RY-L,0
20,21.0,3109.0,5Tt8Ss7YLp,Color-24,Color-RY-L,Color-RY-H,Size-Diamonds-H,Size-Diamonds-L,1
21,22.0,4972.0,5Tt8Ss7YLp,Color-24,Color-RG-L,Color-RG-H,Pitch-Hum-L,Pitch-Hum-H,1
22,23.0,1959.0,5Tt8Ss7YLp,Color-24,Brightness-Triangles-L,Brightness-Triangles-H,Color-RY-H,Color-RY-L,1
23,24.0,4074.0,5Tt8Ss7YLp,Color-24,Color-RB-H,Color-RB-L,Amp-Piano-L,Amp-Piano-H,1
24,25.0,3851.0,5Tt8Ss7YLp,Color-24,Affect-EB-L,Affect-EB-H,Color-RY-H,Color-RY-L,0
25,26.0,3950.0,5Tt8Ss7YLp,Color-24,Color-RY-L,Color-RY-H,Amp-Piano-H,Amp-Piano-L,1
26,27.0,3765.0,5Tt8Ss7YLp,Color-24,Color-RB-H,Color-RB-L,Shape-BK2-L,Shape-BK2-H,1
27,28.0,6578.0,5Tt8Ss7YLp,Color-24,Pitch-Hum-H,Pitch-Hum-L,Color-YB-H,Color-YB-L,0
28,29.0,59571.0,5Tt8Ss7YLp,Color-24,Pitch-Hum-L,Pitch-Hum-H,Color-RG-L,Color-RG-H,1
29,30.0,3544.0,5Tt8Ss7YLp,Color-24,Color-YB-H,Color-YB-L,Affect-EB-H,Affect-EB-L,0
30,31.0,4467.0,5Tt8Ss7YLp,Color-24,Amp-Piano-L,Amp-Piano-H,Color-RG-L,Color-RG-H,0
31,32.0,3442.0,5Tt8Ss7YLp,Color-24,Color-RY-L,Color-RY-H,Speed-SP3-H,Speed-SP3-L,0
32,33.0,4008.0,5Tt8Ss7YLp,Color-24,Color-RB-H,Color-RB-L,Pitch-Hum-L,Pitch-Hum-H,0
33,34.0,2460.0,5Tt8Ss7YLp,Color-24,Color-RB-H,Color-RB-L,Brightness-Triangles-L,Brightness-Triangles-H,1
34,35.0,2614.0,5Tt8Ss7YLp,Color-24,Color-RG-L,Color-RG-H,Brightness-Triangles-L,Brightness-Triangles-H,0
35,36.0,1683.0,5Tt8Ss7YLp,Color-24,Brightness-Triangles-L,Brightness-Triangles-H,Color-RG-L,Color-RG-H,0
36,37.0,3465.0,5Tt8Ss7YLp,Color-24,Affect-EB-H,Affect-EB-L,Color-RB-L,Color-RB-H,1
37,38.0,64820.0,5Tt8Ss7YLp,Color-24,Color-RB-H,Color-RB-L,Size-Diamonds-L,Size-Diamonds-H,1
38,39.0,4411.0,5Tt8Ss7YLp,Color-24,Size-Diamonds-H,Size-Diamonds-L,Color-RB-L,Color-RB-H,1
39,40.0,2448.0,5Tt8Ss7YLp,Color-24,Affect-EB-H,Affect-EB-L,Color-YB-H,Color-YB-L,0
40,41.0,3690.0,5Tt8Ss7YLp,Color-24,Speed-SP3-H,Speed-SP3-L,Color-RB-L,Color-RB-H,1
41,42.0,2753.0,5Tt8Ss7YLp,Color-24,Color-YB-H,Color-YB-L,Brightness-Triangles-H,Brightness-Triangles-L,0
42,43.0,2867.0,5Tt8Ss7YLp,Color-24,Brightness-Triangles-H,Brightness-Triangles-L,Color-YB-H,Color-YB-L,0
43,44.0,3247.0,5Tt8Ss7YLp,Color-24,Shape-BK2-H,Shape-BK2-L,Color-YB-H,Color-YB-L,0
44,45.0,3807.0,5Tt8Ss7YLp,Color-24,Color-RY-L,Color-RY-H,Affect-EB-H,Affect-EB-L,0
45,46.0,5332.0,5Tt8Ss7YLp,Color-24,Pitch-Hum-H,Pitch-Hum-L,Color-RB-L,Color-RB-H,0
46,47.0,4224.0,5Tt8Ss7YLp,Color-24,Pitch-Hum-L,Pitch-Hum-H,Color-RY-H,Color-RY-L,0
47,48.0,2308.0,5Tt8Ss7YLp,Color-24,Shape-BK2-L,Shape-BK2-H,Color-RY-H,Color-RY-L,1
48,49.0,4685.0,5Tt8Ss7YLp,Color-24,Color-RB-H,Color-RB-L,Speed-SP3-L,Speed-SP3-H,1
49,50.0,3417.0,5Tt8Ss7YLp,Color-24,Color-RG-L,Color-RG-H,Amp-Piano-L,Amp-Piano-H,0
50,51.0,5479.0,5Tt8Ss7YLp,Color-24,Noise-Tone-H,Noise-Tone-L,Color-RB-L,Color-RB-H,1
51,52.0,1995.0,5Tt8Ss7YLp,Color-24,Size-Diamonds-L,Size-Diamonds-H,Color-RG-L,Color-RG-H,0
52,53.0,3895.0,5Tt8Ss7YLp,Color-24,Color-YB-H,Color-YB-L,Noise-Tone-H,Noise-Tone-L,0
53,54.0,3197.0,5Tt8Ss7YLp,Color-24,Color-RG-L,Color-RG-H,Affect-EB-L,Affect-EB-H,1
54,55.0,4526.0,5Tt8Ss7YLp,Color-24,Affect-EB-L,Affect-EB-H,Color-RG-L,Color-RG-H,1
55,56.0,2259.0,5Tt8Ss7YLp,Color-24,Color-RY-L,Color-RY-H,Shape-BK2-H,Shape-BK2-L,1
56,57.0,2879.0,5Tt8Ss7YLp,Color-24,Color-RG-L,Color-RG-H,Speed-SP3-L,Speed-SP3-H,1
57,58.0,4340.0,5Tt8Ss7YLp,Color-24,Color-RG-L,Color-RG-H,Noise-Tone-L,Noise-Tone-H,0
58,59.0,3431.0,5Tt8Ss7YLp,Color-24,Color-YB-H,Color-YB-L,Shape-BK2-H,Shape-BK2-L,1
59,60.0,2179.0,5Tt8Ss7YLp,Color-24,Color-RG-L,Color-RG-H,Size-Diamonds-L,Size-Diamonds-H,0
60,61.0,4004.0,5Tt8Ss7YLp,Color-24,Amp-Piano-H,Amp-Piano-L,Color-RB-L,Color-RB-H,1
61,62.0,4082.0,5Tt8Ss7YLp,Color-24,Noise-Tone-L,Noise-Tone-H,Color-RG-L,Color-RG-H,0
62,63.0,3963.0,5Tt8Ss7YLp,Color-24,Color-RY-L,Color-RY-H,Pitch-Hum-H,Pitch-Hum-L,0
63,64.0,8696.0,5Tt8Ss7YLp,Color-24,Color-RY-L,Color-RY-H,Noise-Tone-H,Noise-Tone-L,1
0,1.0,7400.0,63nk7qO1wh,Color-41,Brightness-Diamonds-H,Brightness-Diamonds-L,Color-RB-H,Color-RB-L,0
1,2.0,7156.0,63nk7qO1wh,Color-41,Brightness-Diamonds-H,Brightness-Diamonds-L,Color-RG-L,Color-RG-H,0
2,3.0,10748.0,63nk7qO1wh,Color-41,Pitch-Hum-H,Pitch-Hum-L,Color-RB-H,Color-RB-L,1
3,4.0,11039.0,63nk7qO1wh,Color-41,Affect-SC-L,Affect-SC-H,Color-YB-L,Color-YB-H,0
4,5.0,8122.0,63nk7qO1wh,Color-41,Color-RB-H,Color-RB-L,Noise-Hum-H,Noise-Hum-L,0
5,6.0,8960.0,63nk7qO1wh,Color-41,Amp-Pulse-L,Amp-Pulse-H,Color-RY-H,Color-RY-L,0
6,7.0,10776.0,63nk7qO1wh,Color-41,Color-YB-L,Color-YB-H,Shape-BK3-L,Shape-BK3-H,0
7,8.0,8312.0,63nk7qO1wh,Color-41,Amp-Pulse-L,Amp-Pulse-H,Color-YB-L,Color-YB-H,0
8,9.0,6905.0,63nk7qO1wh,Color-41,Speed-SP2-H,Speed-SP2-L,Color-RG-L,Color-RG-H,0
9,10.0,12573.0,63nk7qO1wh,Color-41,Color-YB-L,Color-YB-H,Noise-Hum-L,Noise-Hum-H,0
10,11.0,7911.0,63nk7qO1wh,Color-41,Affect-SC-L,Affect-SC-H,Color-RY-H,Color-RY-L,1
11,12.0,8284.0,63nk7qO1wh,Color-41,Color-RB-H,Color-RB-L,Brightness-Diamonds-H,Brightness-Diamonds-L,0
12,13.0,11048.0,63nk7qO1wh,Color-41,Speed-SP2-H,Speed-SP2-L,Color-RB-H,Color-RB-L,0
13,14.0,6361.0,63nk7qO1wh,Color-41,Speed-SP2-L,Speed-SP2-H,Color-RY-H,Color-RY-L,1
14,15.0,7220.0,63nk7qO1wh,Color-41,Speed-SP2-L,Speed-SP2-H,Color-YB-L,Color-YB-H,0
15,16.0,7055.0,63nk7qO1wh,Color-41,Color-RB-H,Color-RB-L,Affect-SC-H,Affect-SC-L,0
16,17.0,10040.0,63nk7qO1wh,Color-41,Color-RG-H,Color-RG-L,Speed-SP2-L,Speed-SP2-H,0
17,18.0,10872.0,63nk7qO1wh,Color-41,Color-RY-L,Color-RY-H,Size-Circles-H,Size-Circles-L,1
18,19.0,9495.0,63nk7qO1wh,Color-41,Color-YB-L,Color-YB-H,Brightness-Diamonds-L,Brightness-Diamonds-H,0
19,20.0,4990.0,63nk7qO1wh,Color-41,Color-RG-H,Color-RG-L,Brightness-Diamonds-L,Brightness-Diamonds-H,0
20,21.0,9371.0,63nk7qO1wh,Color-41,Pitch-Hum-H,Pitch-Hum-L,Color-RG-L,Color-RG-H,0
21,22.0,6116.0,63nk7qO1wh,Color-41,Pitch-Hum-L,Pitch-Hum-H,Color-YB-L,Color-YB-H,1
22,23.0,5558.0,63nk7qO1wh,Color-41,Noise-Hum-H,Noise-Hum-L,Color-RG-L,Color-RG-H,1
23,24.0,4417.0,63nk7qO1wh,Color-41,Brightness-Diamonds-L,Brightness-Diamonds-H,Color-YB-L,Color-YB-H,0
24,25.0,5566.0,63nk7qO1wh,Color-41,Shape-BK3-H,Shape-BK3-L,Color-RB-H,Color-RB-L,0
25,26.0,6351.0,63nk7qO1wh,Color-41,Size-Circles-L,Size-Circles-H,Color-YB-L,Color-YB-H,0
26,27.0,7728.0,63nk7qO1wh,Color-41,Color-YB-L,Color-YB-H,Speed-SP2-L,Speed-SP2-H,0
27,28.0,7991.0,63nk7qO1wh,Color-41,Color-RY-L,Color-RY-H,Pitch-Hum-H,Pitch-Hum-L,0
28,29.0,7203.0,63nk7qO1wh,Color-41,Size-Circles-H,Size-Circles-L,Color-RB-H,Color-RB-L,0
29,30.0,6158.0,63nk7qO1wh,Color-41,Color-RY-L,Color-RY-H,Amp-Pulse-H,Amp-Pulse-L,1
30,31.0,5296.0,63nk7qO1wh,Color-41,Color-RB-H,Color-RB-L,Pitch-Hum-H,Pitch-Hum-L,1
31,32.0,6388.0,63nk7qO1wh,Color-41,Noise-Hum-L,Noise-Hum-H,Color-RY-H,Color-RY-L,1
32,33.0,6687.0,63nk7qO1wh,Color-41,Color-RY-L,Color-RY-H,Speed-SP2-H,Speed-SP2-L,1
33,34.0,4873.0,63nk7qO1wh,Color-41,Color-RG-H,Color-RG-L,Amp-Pulse-L,Amp-Pulse-H,1
34,35.0,7214.0,63nk7qO1wh,Color-41,Color-RB-H,Color-RB-L,Speed-SP2-H,Speed-SP2-L,0
35,36.0,10482.0,63nk7qO1wh,Color-41,Noise-Hum-L,Noise-Hum-H,Color-YB-L,Color-YB-H,0
36,37.0,3904.0,63nk7qO1wh,Color-41,Color-YB-L,Color-YB-H,Affect-SC-L,Affect-SC-H,0
37,38.0,5133.0,63nk7qO1wh,Color-41,Color-RG-H,Color-RG-L,Affect-SC-L,Affect-SC-H,1
38,39.0,9204.0,63nk7qO1wh,Color-41,Color-RY-L,Color-RY-H,Brightness-Diamonds-H,Brightness-Diamonds-L,0
39,40.0,5028.0,63nk7qO1wh,Color-41,Color-YB-L,Color-YB-H,Amp-Pulse-L,Amp-Pulse-H,0
40,41.0,4631.0,63nk7qO1wh,Color-41,Color-RB-H,Color-RB-L,Shape-BK3-H,Shape-BK3-L,0
41,42.0,4834.0,63nk7qO1wh,Color-41,Color-RB-H,Color-RB-L,Amp-Pulse-H,Amp-Pulse-L,0
42,43.0,6079.0,63nk7qO1wh,Color-41,Color-RG-H,Color-RG-L,Shape-BK3-L,Shape-BK3-H,0
43,44.0,4032.0,63nk7qO1wh,Color-41,Shape-BK3-L,Shape-BK3-H,Color-YB-L,Color-YB-H,0
44,45.0,5666.0,63nk7qO1wh,Color-41,Color-YB-L,Color-YB-H,Pitch-Hum-L,Pitch-Hum-H,1
45,46.0,6367.0,63nk7qO1wh,Color-41,Size-Circles-L,Size-Circles-H,Color-RY-H,Color-RY-L,1
46,47.0,11903.0,63nk7qO1wh,Color-41,Color-RB-H,Color-RB-L,Size-Circles-H,Size-Circles-L,0
47,48.0,7199.0,63nk7qO1wh,Color-41,Shape-BK3-H,Shape-BK3-L,Color-RG-L,Color-RG-H,1
48,49.0,4761.0,63nk7qO1wh,Color-41,Color-RG-H,Color-RG-L,Pitch-Hum-L,Pitch-Hum-H,0
49,50.0,3254.0,63nk7qO1wh,Color-41,Color-RG-H,Color-RG-L,Size-Circles-L,Size-Circles-H,1
50,51.0,8199.0,63nk7qO1wh,Color-41,Noise-Hum-H,Noise-Hum-L,Color-RB-H,Color-RB-L,0
51,52.0,5084.0,63nk7qO1wh,Color-41,Amp-Pulse-H,Amp-Pulse-L,Color-RB-H,Color-RB-L,0
52,53.0,3039.0,63nk7qO1wh,Color-41,Shape-BK3-L,Shape-BK3-H,Color-RY-H,Color-RY-L,1
53,54.0,5054.0,63nk7qO1wh,Color-41,Affect-SC-H,Affect-SC-L,Color-RG-L,Color-RG-H,0
54,55.0,4421.0,63nk7qO1wh,Color-41,Amp-Pulse-H,Amp-Pulse-L,Color-RG-L,Color-RG-H,1
55,56.0,5037.0,63nk7qO1wh,Color-41,Brightness-Diamonds-L,Brightness-Diamonds-H,Color-RY-H,Color-RY-L,0
56,57.0,8998.0,63nk7qO1wh,Color-41,Color-RY-L,Color-RY-H,Affect-SC-H,Affect-SC-L,1
57,58.0,6072.0,63nk7qO1wh,Color-41,Affect-SC-H,Affect-SC-L,Color-RB-H,Color-RB-L,0
58,59.0,6112.0,63nk7qO1wh,Color-41,Size-Circles-H,Size-Circles-L,Color-RG-L,Color-RG-H,1
59,60.0,4610.0,63nk7qO1wh,Color-41,Pitch-Hum-L,Pitch-Hum-H,Color-RY-H,Color-RY-L,0
60,61.0,6055.0,63nk7qO1wh,Color-41,Color-RG-H,Color-RG-L,Noise-Hum-L,Noise-Hum-H,1
61,62.0,5679.0,63nk7qO1wh,Color-41,Color-RY-L,Color-RY-H,Noise-Hum-H,Noise-Hum-L,1
62,63.0,5479.0,63nk7qO1wh,Color-41,Color-YB-L,Color-YB-H,Size-Circles-L,Size-Circles-H,0
63,64.0,4154.0,63nk7qO1wh,Color-41,Color-RY-L,Color-RY-H,Shape-BK3-H,Shape-BK3-L,1
0,1.0,3825.0,6Gb5NF3GsN,Color-45,Color-RG-H,Color-RG-L,Speed-SP3-L,Speed-SP3-H,1
1,2.0,2871.0,6Gb5NF3GsN,Color-45,Size-Diamonds-L,Size-Diamonds-H,Color-YB-H,Color-YB-L,1
2,3.0,1232.0,6Gb5NF3GsN,Color-45,Size-Diamonds-L,Size-Diamonds-H,Color-RB-L,Color-RB-H,0
3,4.0,3150.0,6Gb5NF3GsN,Color-45,Affect-HS-H,Affect-HS-L,Color-RG-L,Color-RG-H,0
4,5.0,2906.0,6Gb5NF3GsN,Color-45,Color-RB-L,Color-RB-H,Affect-HS-L,Affect-HS-H,1
5,6.0,2324.0,6Gb5NF3GsN,Color-45,Shape-BK1-H,Shape-BK1-L,Color-RY-H,Color-RY-L,1
6,7.0,6972.0,6Gb5NF3GsN,Color-45,Color-RG-H,Color-RG-L,Amp-Pulse-L,Amp-Pulse-H,1
7,8.0,3807.0,6Gb5NF3GsN,Color-45,Shape-BK1-L,Shape-BK1-H,Color-YB-H,Color-YB-L,1
8,9.0,1856.0,6Gb5NF3GsN,Color-45,Speed-SP3-L,Speed-SP3-H,Color-YB-H,Color-YB-L,0
9,10.0,1727.0,6Gb5NF3GsN,Color-45,Color-YB-L,Color-YB-H,Shape-BK1-H,Shape-BK1-L,1
10,11.0,1242.0,6Gb5NF3GsN,Color-45,Color-RY-H,Color-RY-L,Speed-SP3-H,Speed-SP3-L,1
11,12.0,4434.0,6Gb5NF3GsN,Color-45,Noise-Hum-H,Noise-Hum-L,Color-RG-L,Color-RG-H,1
12,13.0,4191.0,6Gb5NF3GsN,Color-45,Brightness-Triangles-L,Brightness-Triangles-H,Color-RB-L,Color-RB-H,0
13,14.0,2794.0,6Gb5NF3GsN,Color-45,Color-RG-H,Color-RG-L,Size-Diamonds-L,Size-Diamonds-H,0
14,15.0,5471.0,6Gb5NF3GsN,Color-45,Color-RY-H,Color-RY-L,Pitch-Hum-H,Pitch-Hum-L,1
15,16.0,4186.0,6Gb5NF3GsN,Color-45,Pitch-Hum-H,Pitch-Hum-L,Color-RG-L,Color-RG-H,0
16,17.0,2394.0,6Gb5NF3GsN,Color-45,Color-YB-L,Color-YB-H,Speed-SP3-H,Speed-SP3-L,0
17,18.0,2908.0,6Gb5NF3GsN,Color-45,Speed-SP3-H,Speed-SP3-L,Color-RY-H,Color-RY-L,0
18,19.0,3294.0,6Gb5NF3GsN,Color-45,Brightness-Triangles-H,Brightness-Triangles-L,Color-RY-H,Color-RY-L,0
19,20.0,2749.0,6Gb5NF3GsN,Color-45,Speed-SP3-H,Speed-SP3-L,Color-RG-L,Color-RG-H,1
20,21.0,7006.0,6Gb5NF3GsN,Color-45,Color-RG-H,Color-RG-L,Noise-Hum-L,Noise-Hum-H,1
21,22.0,2184.0,6Gb5NF3GsN,Color-45,Color-RB-L,Color-RB-H,Shape-BK1-L,Shape-BK1-H,1
22,23.0,4578.0,6Gb5NF3GsN,Color-45,Amp-Pulse-L,Amp-Pulse-H,Color-YB-H,Color-YB-L,0
23,24.0,3202.0,6Gb5NF3GsN,Color-45,Color-RB-L,Color-RB-H,Pitch-Hum-L,Pitch-Hum-H,1
24,25.0,9096.0,6Gb5NF3GsN,Color-45,Pitch-Hum-L,Pitch-Hum-H,Color-YB-H,Color-YB-L,1
25,26.0,2610.0,6Gb5NF3GsN,Color-45,Speed-SP3-L,Speed-SP3-H,Color-RB-L,Color-RB-H,0
26,27.0,5125.0,6Gb5NF3GsN,Color-45,Amp-Pulse-L,Amp-Pulse-H,Color-RB-L,Color-RB-H,0
27,28.0,1936.0,6Gb5NF3GsN,Color-45,Brightness-Triangles-H,Brightness-Triangles-L,Color-RG-L,Color-RG-H,1
28,29.0,2515.0,6Gb5NF3GsN,Color-45,Color-RB-L,Color-RB-H,Size-Diamonds-L,Size-Diamonds-H,0
29,30.0,5030.0,6Gb5NF3GsN,Color-45,Amp-Pulse-H,Amp-Pulse-L,Color-RG-L,Color-RG-H,1
30,31.0,3272.0,6Gb5NF3GsN,Color-45,Color-YB-L,Color-YB-H,Pitch-Hum-H,Pitch-Hum-L,0
31,32.0,6699.0,6Gb5NF3GsN,Color-45,Amp-Pulse-H,Amp-Pulse-L,Color-RY-H,Color-RY-L,0
32,33.0,3342.0,6Gb5NF3GsN,Color-45,Pitch-Hum-L,Pitch-Hum-H,Color-RB-L,Color-RB-H,1
33,34.0,4722.0,6Gb5NF3GsN,Color-45,Color-YB-L,Color-YB-H,Noise-Hum-H,Noise-Hum-L,1
34,35.0,1832.0,6Gb5NF3GsN,Color-45,Color-RB-L,Color-RB-H,Speed-SP3-L,Speed-SP3-H,0
35,36.0,2203.0,6Gb5NF3GsN,Color-45,Color-YB-L,Color-YB-H,Size-Diamonds-H,Size-Diamonds-L,0
36,37.0,2675.0,6Gb5NF3GsN,Color-45,Color-RY-H,Color-RY-L,Affect-HS-H,Affect-HS-L,1
37,38.0,2396.0,6Gb5NF3GsN,Color-45,Color-RG-H,Color-RG-L,Brightness-Triangles-L,Brightness-Triangles-H,1
38,39.0,5020.0,6Gb5NF3GsN,Color-45,Noise-Hum-L,Noise-Hum-H,Color-RB-L,Color-RB-H,0
39,40.0,2254.0,6Gb5NF3GsN,Color-45,Affect-HS-L,Affect-HS-H,Color-YB-H,Color-YB-L,0
40,41.0,6014.0,6Gb5NF3GsN,Color-45,Shape-BK1-L,Shape-BK1-H,Color-RB-L,Color-RB-H,0
41,42.0,2202.0,6Gb5NF3GsN,Color-45,Affect-HS-H,Affect-HS-L,Color-RY-H,Color-RY-L,1
42,43.0,1918.0,6Gb5NF3GsN,Color-45,Color-RG-H,Color-RG-L,Affect-HS-L,Affect-HS-H,0
43,44.0,2054.0,6Gb5NF3GsN,Color-45,Affect-HS-L,Affect-HS-H,Color-RB-L,Color-RB-H,1
44,45.0,4759.0,6Gb5NF3GsN,Color-45,Color-RY-H,Color-RY-L,Amp-Pulse-H,Amp-Pulse-L,0
45,46.0,5391.0,6Gb5NF3GsN,Color-45,Color-YB-L,Color-YB-H,Amp-Pulse-H,Amp-Pulse-L,1
46,47.0,3129.0,6Gb5NF3GsN,Color-45,Brightness-Triangles-L,Brightness-Triangles-H,Color-YB-H,Color-YB-L,0
47,48.0,2027.0,6Gb5NF3GsN,Color-45,Size-Diamonds-H,Size-Diamonds-L,Color-RG-L,Color-RG-H,1
48,49.0,4775.0,6Gb5NF3GsN,Color-45,Color-RY-H,Color-RY-L,Noise-Hum-H,Noise-Hum-L,0
49,50.0,4566.0,6Gb5NF3GsN,Color-45,Color-RB-L,Color-RB-H,Amp-Pulse-L,Amp-Pulse-H,0
50,51.0,1610.0,6Gb5NF3GsN,Color-45,Shape-BK1-H,Shape-BK1-L,Color-RG-L,Color-RG-H,1
51,52.0,2623.0,6Gb5NF3GsN,Color-45,Color-RY-H,Color-RY-L,Brightness-Triangles-H,Brightness-Triangles-L,0
52,53.0,3871.0,6Gb5NF3GsN,Color-45,Color-YB-L,Color-YB-H,Affect-HS-H,Affect-HS-L,0
53,54.0,3925.0,6Gb5NF3GsN,Color-45,Noise-Hum-L,Noise-Hum-H,Color-YB-H,Color-YB-L,0
54,55.0,3372.0,6Gb5NF3GsN,Color-45,Noise-Hum-H,Noise-Hum-L,Color-RY-H,Color-RY-L,0
55,56.0,3241.0,6Gb5NF3GsN,Color-45,Color-RG-H,Color-RG-L,Shape-BK1-L,Shape-BK1-H,1
56,57.0,3663.0,6Gb5NF3GsN,Color-45,Pitch-Hum-H,Pitch-Hum-L,Color-RY-H,Color-RY-L,1
57,58.0,4762.0,6Gb5NF3GsN,Color-45,Color-RG-H,Color-RG-L,Pitch-Hum-L,Pitch-Hum-H,0
58,59.0,1943.0,6Gb5NF3GsN,Color-45,Color-YB-L,Color-YB-H,Brightness-Triangles-H,Brightness-Triangles-L,1
59,60.0,3612.0,6Gb5NF3GsN,Color-45,Color-RB-L,Color-RB-H,Noise-Hum-L,Noise-Hum-H,0
60,61.0,2135.0,6Gb5NF3GsN,Color-45,Color-RY-H,Color-RY-L,Size-Diamonds-H,Size-Diamonds-L,1
61,62.0,2545.0,6Gb5NF3GsN,Color-45,Color-RB-L,Color-RB-H,Brightness-Triangles-L,Brightness-Triangles-H,0
62,63.0,1447.0,6Gb5NF3GsN,Color-45,Size-Diamonds-H,Size-Diamonds-L,Color-RY-H,Color-RY-L,1
63,64.0,1090.0,6Gb5NF3GsN,Color-45,Color-RY-H,Color-RY-L,Shape-BK1-H,Shape-BK1-L,0
0,1.0,6901.0,6VVxBSd8Gu,Color-54,Color-RG-L,Color-RG-H,Speed-SP4-L,Speed-SP4-H,1
1,2.0,5631.0,6VVxBSd8Gu,Color-54,Size-Squares-L,Size-Squares-H,Color-RB-H,Color-RB-L,1
2,3.0,5059.0,6VVxBSd8Gu,Color-54,Color-RB-L,Color-RB-H,Size-Squares-H,Size-Squares-L,1
3,4.0,6637.0,6VVxBSd8Gu,Color-54,Color-RY-H,Color-RY-L,Brightness-Triangles-L,Brightness-Triangles-H,1
4,5.0,5806.0,6VVxBSd8Gu,Color-54,Brightness-Triangles-L,Brightness-Triangles-H,Color-RB-H,Color-RB-L,0
5,6.0,5782.0,6VVxBSd8Gu,Color-54,Color-RG-L,Color-RG-H,Pitch-Tone-L,Pitch-Tone-H,0
6,7.0,6884.0,6VVxBSd8Gu,Color-54,Affect-EB-H,Affect-EB-L,Color-YB-H,Color-YB-L,1
7,8.0,8853.0,6VVxBSd8Gu,Color-54,Color-RY-H,Color-RY-L,Pitch-Tone-L,Pitch-Tone-H,1
8,9.0,4583.0,6VVxBSd8Gu,Color-54,Color-YB-H,Color-YB-L,Brightness-Triangles-H,Brightness-Triangles-L,0
9,10.0,4153.0,6VVxBSd8Gu,Color-54,Brightness-Triangles-H,Brightness-Triangles-L,Color-RY-L,Color-RY-H,0
10,11.0,4870.0,6VVxBSd8Gu,Color-54,Color-RB-L,Color-RB-H,Noise-Tone-H,Noise-Tone-L,1
11,12.0,5327.0,6VVxBSd8Gu,Color-54,Color-RB-L,Color-RB-H,Pitch-Tone-H,Pitch-Tone-L,1
12,13.0,3615.0,6VVxBSd8Gu,Color-54,Size-Squares-H,Size-Squares-L,Color-YB-H,Color-YB-L,0
13,14.0,7206.0,6VVxBSd8Gu,Color-54,Color-RG-L,Color-RG-H,Affect-EB-L,Affect-EB-H,1
14,15.0,3525.0,6VVxBSd8Gu,Color-54,Color-RY-H,Color-RY-L,Affect-EB-L,Affect-EB-H,0
15,16.0,6442.0,6VVxBSd8Gu,Color-54,Pitch-Tone-H,Pitch-Tone-L,Color-YB-H,Color-YB-L,0
16,17.0,5731.0,6VVxBSd8Gu,Color-54,Pitch-Tone-L,Pitch-Tone-H,Color-RB-H,Color-RB-L,1
17,18.0,5455.0,6VVxBSd8Gu,Color-54,Speed-SP4-L,Speed-SP4-H,Color-RG-L,Color-RG-H,1
18,19.0,4194.0,6VVxBSd8Gu,Color-54,Color-YB-H,Color-YB-L,Speed-SP4-H,Speed-SP4-L,1
19,20.0,10758.0,6VVxBSd8Gu,Color-54,Shape-BK3-L,Shape-BK3-H,Color-RG-L,Color-RG-H,0
20,21.0,5136.0,6VVxBSd8Gu,Color-54,Noise-Tone-L,Noise-Tone-H,Color-RB-H,Color-RB-L,0
21,22.0,5631.0,6VVxBSd8Gu,Color-54,Speed-SP4-H,Speed-SP4-L,Color-RY-L,Color-RY-H,0
22,23.0,5136.0,6VVxBSd8Gu,Color-54,Shape-BK3-H,Shape-BK3-L,Color-YB-H,Color-YB-L,0
23,24.0,4273.0,6VVxBSd8Gu,Color-54,Color-YB-H,Color-YB-L,Noise-Tone-H,Noise-Tone-L,0
24,25.0,6584.0,6VVxBSd8Gu,Color-54,Noise-Tone-H,Noise-Tone-L,Color-RY-L,Color-RY-H,1
25,26.0,3575.0,6VVxBSd8Gu,Color-54,Size-Squares-H,Size-Squares-L,Color-RY-L,Color-RY-H,0
26,27.0,12738.0,6VVxBSd8Gu,Color-54,Color-RY-H,Color-RY-L,Amp-Piano-L,Amp-Piano-H,1
27,28.0,7142.0,6VVxBSd8Gu,Color-54,Speed-SP4-H,Speed-SP4-L,Color-YB-H,Color-YB-L,1
28,29.0,4689.0,6VVxBSd8Gu,Color-54,Color-RB-L,Color-RB-H,Amp-Piano-H,Amp-Piano-L,1
29,30.0,13082.0,6VVxBSd8Gu,Color-54,Pitch-Tone-H,Pitch-Tone-L,Color-RY-L,Color-RY-H,1
30,31.0,8411.0,6VVxBSd8Gu,Color-54,Noise-Tone-L,Noise-Tone-H,Color-RG-L,Color-RG-H,0
31,32.0,3717.0,6VVxBSd8Gu,Color-54,Color-RG-L,Color-RG-H,Brightness-Triangles-L,Brightness-Triangles-H,1
32,33.0,4893.0,6VVxBSd8Gu,Color-54,Color-RB-L,Color-RB-H,Brightness-Triangles-H,Brightness-Triangles-L,0
33,34.0,2662.0,6VVxBSd8Gu,Color-54,Color-RG-L,Color-RG-H,Shape-BK3-L,Shape-BK3-H,0
34,35.0,4335.0,6VVxBSd8Gu,Color-54,Noise-Tone-H,Noise-Tone-L,Color-YB-H,Color-YB-L,1
35,36.0,4973.0,6VVxBSd8Gu,Color-54,Color-RG-L,Color-RG-H,Amp-Piano-L,Amp-Piano-H,0
36,37.0,4841.0,6VVxBSd8Gu,Color-54,Amp-Piano-L,Amp-Piano-H,Color-RG-L,Color-RG-H,0
37,38.0,4316.0,6VVxBSd8Gu,Color-54,Brightness-Triangles-H,Brightness-Triangles-L,Color-YB-H,Color-YB-L,1
38,39.0,6471.0,6VVxBSd8Gu,Color-54,Color-YB-H,Color-YB-L,Affect-EB-H,Affect-EB-L,0
39,40.0,5115.0,6VVxBSd8Gu,Color-54,Amp-Piano-H,Amp-Piano-L,Color-RY-L,Color-RY-H,1
40,41.0,6069.0,6VVxBSd8Gu,Color-54,Brightness-Triangles-L,Brightness-Triangles-H,Color-RG-L,Color-RG-H,1
41,42.0,3424.0,6VVxBSd8Gu,Color-54,Color-RB-L,Color-RB-H,Affect-EB-H,Affect-EB-L,0
42,43.0,4770.0,6VVxBSd8Gu,Color-54,Color-RY-H,Color-RY-L,Speed-SP4-L,Speed-SP4-H,0
43,44.0,4405.0,6VVxBSd8Gu,Color-54,Color-RY-H,Color-RY-L,Noise-Tone-L,Noise-Tone-H,1
44,45.0,4709.0,6VVxBSd8Gu,Color-54,Color-YB-H,Color-YB-L,Amp-Piano-H,Amp-Piano-L,0
45,46.0,4740.0,6VVxBSd8Gu,Color-54,Affect-EB-L,Affect-EB-H,Color-RB-H,Color-RB-L,0
46,47.0,4414.0,6VVxBSd8Gu,Color-54,Pitch-Tone-L,Pitch-Tone-H,Color-RG-L,Color-RG-H,0
47,48.0,2794.0,6VVxBSd8Gu,Color-54,Color-RG-L,Color-RG-H,Size-Squares-L,Size-Squares-H,0
48,49.0,5054.0,6VVxBSd8Gu,Color-54,Color-RG-L,Color-RG-H,Noise-Tone-L,Noise-Tone-H,0
49,50.0,2987.0,6VVxBSd8Gu,Color-54,Color-RY-H,Color-RY-L,Shape-BK3-L,Shape-BK3-H,1
50,51.0,3452.0,6VVxBSd8Gu,Color-54,Shape-BK3-L,Shape-BK3-H,Color-RB-H,Color-RB-L,1
51,52.0,3829.0,6VVxBSd8Gu,Color-54,Color-YB-H,Color-YB-L,Shape-BK3-H,Shape-BK3-L,0
52,53.0,3555.0,6VVxBSd8Gu,Color-54,Color-RY-H,Color-RY-L,Size-Squares-L,Size-Squares-H,1
53,54.0,3098.0,6VVxBSd8Gu,Color-54,Shape-BK3-H,Shape-BK3-L,Color-RY-L,Color-RY-H,1
54,55.0,5298.0,6VVxBSd8Gu,Color-54,Affect-EB-H,Affect-EB-L,Color-RY-L,Color-RY-H,0
55,56.0,2957.0,6VVxBSd8Gu,Color-54,Color-RB-L,Color-RB-H,Shape-BK3-H,Shape-BK3-L,1
56,57.0,3342.0,6VVxBSd8Gu,Color-54,Speed-SP4-L,Speed-SP4-H,Color-RB-H,Color-RB-L,0
57,58.0,7335.0,6VVxBSd8Gu,Color-54,Color-YB-H,Color-YB-L,Pitch-Tone-H,Pitch-Tone-L,0
58,59.0,3018.0,6VVxBSd8Gu,Color-54,Color-YB-H,Color-YB-L,Size-Squares-H,Size-Squares-L,0
59,60.0,4589.0,6VVxBSd8Gu,Color-54,Amp-Piano-H,Amp-Piano-L,Color-YB-H,Color-YB-L,0
60,61.0,4243.0,6VVxBSd8Gu,Color-54,Amp-Piano-L,Amp-Piano-H,Color-RB-H,Color-RB-L,1
61,62.0,7519.0,6VVxBSd8Gu,Color-54,Affect-EB-L,Affect-EB-H,Color-RG-L,Color-RG-H,1
62,63.0,3201.0,6VVxBSd8Gu,Color-54,Size-Squares-L,Size-Squares-H,Color-RG-L,Color-RG-H,1
63,64.0,3373.0,6VVxBSd8Gu,Color-54,Color-RB-L,Color-RB-H,Speed-SP4-H,Speed-SP4-L,0
0,1.0,1665.0,7KMsUTXXXH,Color-19,Brightness-Squares-H,Brightness-Squares-L,Color-YB-H,Color-YB-L,0
1,2.0,3243.0,7KMsUTXXXH,Color-19,Color-RG-L,Color-RG-H,Pitch-Pulse-L,Pitch-Pulse-H,1
2,3.0,3968.0,7KMsUTXXXH,Color-19,Color-YB-H,Color-YB-L,Pitch-Pulse-H,Pitch-Pulse-L,0
3,4.0,3585.0,7KMsUTXXXH,Color-19,Color-RY-H,Color-RY-L,Pitch-Pulse-L,Pitch-Pulse-H,1
4,5.0,3666.0,7KMsUTXXXH,Color-19,Amp-Tone-H,Amp-Tone-L,Color-RY-L,Color-RY-H,1
5,6.0,3860.0,7KMsUTXXXH,Color-19,Noise-Piano-L,Noise-Piano-H,Color-RB-H,Color-RB-L,0
6,7.0,3355.0,7KMsUTXXXH,Color-19,Color-RB-L,Color-RB-H,Noise-Piano-H,Noise-Piano-L,1
7,8.0,3205.0,7KMsUTXXXH,Color-19,Color-RB-L,Color-RB-H,Brightness-Squares-H,Brightness-Squares-L,0
8,9.0,4216.0,7KMsUTXXXH,Color-19,Color-YB-H,Color-YB-L,Noise-Piano-H,Noise-Piano-L,0
9,10.0,4121.0,7KMsUTXXXH,Color-19,Amp-Tone-L,Amp-Tone-H,Color-RG-L,Color-RG-H,0
10,11.0,2438.0,7KMsUTXXXH,Color-19,Size-Triangles-L,Size-Triangles-H,Color-RG-L,Color-RG-H,1
11,12.0,1208.0,7KMsUTXXXH,Color-19,Color-RB-L,Color-RB-H,Speed-SP3-H,Speed-SP3-L,0
12,13.0,1100.0,7KMsUTXXXH,Color-19,Shape-BK2-H,Shape-BK2-L,Color-YB-H,Color-YB-L,0
13,14.0,944.0,7KMsUTXXXH,Color-19,Color-RB-L,Color-RB-H,Shape-BK2-H,Shape-BK2-L,1
14,15.0,4062.0,7KMsUTXXXH,Color-19,Color-RY-H,Color-RY-L,Amp-Tone-L,Amp-Tone-H,0
15,16.0,1347.0,7KMsUTXXXH,Color-19,Size-Triangles-H,Size-Triangles-L,Color-YB-H,Color-YB-L,1
16,17.0,5025.0,7KMsUTXXXH,Color-19,Pitch-Pulse-L,Pitch-Pulse-H,Color-RB-H,Color-RB-L,0
17,18.0,2024.0,7KMsUTXXXH,Color-19,Color-YB-H,Color-YB-L,Brightness-Squares-H,Brightness-Squares-L,1
18,19.0,1667.0,7KMsUTXXXH,Color-19,Brightness-Squares-L,Brightness-Squares-H,Color-RG-L,Color-RG-H,0
19,20.0,1477.0,7KMsUTXXXH,Color-19,Color-RG-L,Color-RG-H,Speed-SP3-L,Speed-SP3-H,0
20,21.0,1999.0,7KMsUTXXXH,Color-19,Shape-BK2-L,Shape-BK2-H,Color-RB-H,Color-RB-L,1
21,22.0,3706.0,7KMsUTXXXH,Color-19,Color-YB-H,Color-YB-L,Shape-BK2-H,Shape-BK2-L,1
22,23.0,3839.0,7KMsUTXXXH,Color-19,Affect-HS-L,Affect-HS-H,Color-RG-L,Color-RG-H,1
23,24.0,1649.0,7KMsUTXXXH,Color-19,Affect-HS-L,Affect-HS-H,Color-RB-H,Color-RB-L,0
24,25.0,1392.0,7KMsUTXXXH,Color-19,Shape-BK2-H,Shape-BK2-L,Color-RY-L,Color-RY-H,1
25,26.0,3063.0,7KMsUTXXXH,Color-19,Color-RG-L,Color-RG-H,Brightness-Squares-L,Brightness-Squares-H,1
26,27.0,2379.0,7KMsUTXXXH,Color-19,Affect-HS-H,Affect-HS-L,Color-RY-L,Color-RY-H,0
27,28.0,1534.0,7KMsUTXXXH,Color-19,Shape-BK2-L,Shape-BK2-H,Color-RG-L,Color-RG-H,0
28,29.0,2438.0,7KMsUTXXXH,Color-19,Color-YB-H,Color-YB-L,Speed-SP3-H,Speed-SP3-L,0
29,30.0,3927.0,7KMsUTXXXH,Color-19,Color-RY-H,Color-RY-L,Size-Triangles-L,Size-Triangles-H,1
30,31.0,3180.0,7KMsUTXXXH,Color-19,Color-RB-L,Color-RB-H,Size-Triangles-H,Size-Triangles-L,1
31,32.0,12041.0,7KMsUTXXXH,Color-19,Color-YB-H,Color-YB-L,Amp-Tone-H,Amp-Tone-L,1
32,33.0,3674.0,7KMsUTXXXH,Color-19,Amp-Tone-H,Amp-Tone-L,Color-YB-H,Color-YB-L,1
33,34.0,4123.0,7KMsUTXXXH,Color-19,Color-RY-H,Color-RY-L,Affect-HS-L,Affect-HS-H,0
34,35.0,9286.0,7KMsUTXXXH,Color-19,Pitch-Pulse-L,Pitch-Pulse-H,Color-RG-L,Color-RG-H,0
35,36.0,4575.0,7KMsUTXXXH,Color-19,Noise-Piano-L,Noise-Piano-H,Color-RG-L,Color-RG-H,0
36,37.0,2414.0,7KMsUTXXXH,Color-19,Color-RY-H,Color-RY-L,Brightness-Squares-L,Brightness-Squares-H,1
37,38.0,12405.0,7KMsUTXXXH,Color-19,Affect-HS-H,Affect-HS-L,Color-YB-H,Color-YB-L,1
38,39.0,1416.0,7KMsUTXXXH,Color-19,Size-Triangles-L,Size-Triangles-H,Color-RB-H,Color-RB-L,1
39,40.0,1823.0,7KMsUTXXXH,Color-19,Color-RG-L,Color-RG-H,Size-Triangles-L,Size-Triangles-H,0
40,41.0,4011.0,7KMsUTXXXH,Color-19,Pitch-Pulse-H,Pitch-Pulse-L,Color-RY-L,Color-RY-H,1
41,42.0,4164.0,7KMsUTXXXH,Color-19,Color-RY-H,Color-RY-L,Noise-Piano-L,Noise-Piano-H,0
42,43.0,1430.0,7KMsUTXXXH,Color-19,Speed-SP3-L,Speed-SP3-H,Color-RB-H,Color-RB-L,1
43,44.0,1883.0,7KMsUTXXXH,Color-19,Color-RG-L,Color-RG-H,Affect-HS-L,Affect-HS-H,1
44,45.0,2069.0,7KMsUTXXXH,Color-19,Brightness-Squares-L,Brightness-Squares-H,Color-RB-H,Color-RB-L,0
45,46.0,1953.0,7KMsUTXXXH,Color-19,Color-RG-L,Color-RG-H,Shape-BK2-L,Shape-BK2-H,1
46,47.0,1621.0,7KMsUTXXXH,Color-19,Color-RB-L,Color-RB-H,Affect-HS-H,Affect-HS-L,0
47,48.0,4881.0,7KMsUTXXXH,Color-19,Amp-Tone-L,Amp-Tone-H,Color-RB-H,Color-RB-L,1
48,49.0,3392.0,7KMsUTXXXH,Color-19,Color-RG-L,Color-RG-H,Noise-Piano-L,Noise-Piano-H,0
49,50.0,2121.0,7KMsUTXXXH,Color-19,Speed-SP3-H,Speed-SP3-L,Color-YB-H,Color-YB-L,0
50,51.0,4780.0,7KMsUTXXXH,Color-19,Pitch-Pulse-H,Pitch-Pulse-L,Color-YB-H,Color-YB-L,0
51,52.0,1836.0,7KMsUTXXXH,Color-19,Size-Triangles-H,Size-Triangles-L,Color-RY-L,Color-RY-H,1
52,53.0,1181.0,7KMsUTXXXH,Color-19,Brightness-Squares-H,Brightness-Squares-L,Color-RY-L,Color-RY-H,0
53,54.0,2217.0,7KMsUTXXXH,Color-19,Color-YB-H,Color-YB-L,Affect-HS-H,Affect-HS-L,1
54,55.0,3275.0,7KMsUTXXXH,Color-19,Noise-Piano-H,Noise-Piano-L,Color-RY-L,Color-RY-H,0
55,56.0,2838.0,7KMsUTXXXH,Color-19,Color-RY-H,Color-RY-L,Shape-BK2-L,Shape-BK2-H,1
56,57.0,2477.0,7KMsUTXXXH,Color-19,Speed-SP3-H,Speed-SP3-L,Color-RY-L,Color-RY-H,1
57,58.0,2969.0,7KMsUTXXXH,Color-19,Color-RG-L,Color-RG-H,Amp-Tone-L,Amp-Tone-H,0
58,59.0,2148.0,7KMsUTXXXH,Color-19,Color-RY-H,Color-RY-L,Speed-SP3-L,Speed-SP3-H,1
59,60.0,2914.0,7KMsUTXXXH,Color-19,Color-YB-H,Color-YB-L,Size-Triangles-H,Size-Triangles-L,1
60,61.0,5780.0,7KMsUTXXXH,Color-19,Color-RB-L,Color-RB-H,Amp-Tone-H,Amp-Tone-L,1
61,62.0,3744.0,7KMsUTXXXH,Color-19,Noise-Piano-H,Noise-Piano-L,Color-YB-H,Color-YB-L,0
62,63.0,2565.0,7KMsUTXXXH,Color-19,Speed-SP3-L,Speed-SP3-H,Color-RG-L,Color-RG-H,0
63,64.0,3436.0,7KMsUTXXXH,Color-19,Color-RB-L,Color-RB-H,Pitch-Pulse-H,Pitch-Pulse-L,1
0,1.0,11298.0,9iXejExRaw,Color-55,Color-RG-H,Color-RG-L,Amp-Piano-L,Amp-Piano-H,1
1,2.0,5489.0,9iXejExRaw,Color-55,Color-RG-H,Color-RG-L,Affect-EB-L,Affect-EB-H,0
2,3.0,7613.0,9iXejExRaw,Color-55,Color-RY-L,Color-RY-H,Shape-BK4-L,Shape-BK4-H,0
3,4.0,8220.0,9iXejExRaw,Color-55,Speed-SP4-H,Speed-SP4-L,Color-RG-L,Color-RG-H,0
4,5.0,8466.0,9iXejExRaw,Color-55,Shape-BK4-H,Shape-BK4-L,Color-RG-L,Color-RG-H,1
5,6.0,6124.0,9iXejExRaw,Color-55,Size-Circles-L,Size-Circles-H,Color-RY-L,Color-RY-H,0
6,7.0,4401.0,9iXejExRaw,Color-55,Color-RB-L,Color-RB-H,Shape-BK4-H,Shape-BK4-L,1
7,8.0,10365.0,9iXejExRaw,Color-55,Amp-Piano-H,Amp-Piano-L,Color-RG-L,Color-RG-H,1
8,9.0,8112.0,9iXejExRaw,Color-55,Color-YB-H,Color-YB-L,Shape-BK4-H,Shape-BK4-L,0
9,10.0,10637.0,9iXejExRaw,Color-55,Noise-Pulse-L,Noise-Pulse-H,Color-RB-H,Color-RB-L,1
10,11.0,4830.0,9iXejExRaw,Color-55,Shape-BK4-L,Shape-BK4-H,Color-RB-H,Color-RB-L,1
11,12.0,9421.0,9iXejExRaw,Color-55,Color-YB-H,Color-YB-L,Affect-EB-H,Affect-EB-L,0
12,13.0,4371.0,9iXejExRaw,Color-55,Speed-SP4-H,Speed-SP4-L,Color-YB-H,Color-YB-L,0
13,14.0,5260.0,9iXejExRaw,Color-55,Brightness-Diamonds-H,Brightness-Diamonds-L,Color-YB-H,Color-YB-L,0
14,15.0,4000.0,9iXejExRaw,Color-55,Color-RG-H,Color-RG-L,Speed-SP4-L,Speed-SP4-H,0
15,16.0,5441.0,9iXejExRaw,Color-55,Color-YB-H,Color-YB-L,Amp-Piano-H,Amp-Piano-L,0
16,17.0,13823.0,9iXejExRaw,Color-55,Color-YB-H,Color-YB-L,Noise-Pulse-H,Noise-Pulse-L,0
17,18.0,4381.0,9iXejExRaw,Color-55,Affect-EB-H,Affect-EB-L,Color-YB-H,Color-YB-L,0
18,19.0,5266.0,9iXejExRaw,Color-55,Color-RG-H,Color-RG-L,Brightness-Diamonds-L,Brightness-Diamonds-H,0
19,20.0,5808.0,9iXejExRaw,Color-55,Size-Circles-H,Size-Circles-L,Color-RG-L,Color-RG-H,1
20,21.0,5242.0,9iXejExRaw,Color-55,Color-RB-L,Color-RB-H,Affect-EB-H,Affect-EB-L,1
21,22.0,5997.0,9iXejExRaw,Color-55,Amp-Piano-L,Amp-Piano-H,Color-RY-L,Color-RY-H,0
22,23.0,9390.0,9iXejExRaw,Color-55,Pitch-Hum-L,Pitch-Hum-H,Color-RY-L,Color-RY-H,1
23,24.0,10521.0,9iXejExRaw,Color-55,Amp-Piano-H,Amp-Piano-L,Color-YB-H,Color-YB-L,0
24,25.0,6599.0,9iXejExRaw,Color-55,Color-RY-L,Color-RY-H,Brightness-Diamonds-L,Brightness-Diamonds-H,0
25,26.0,8839.0,9iXejExRaw,Color-55,Affect-EB-L,Affect-EB-H,Color-RY-L,Color-RY-H,1
26,27.0,9817.0,9iXejExRaw,Color-55,Noise-Pulse-H,Noise-Pulse-L,Color-YB-H,Color-YB-L,1
27,28.0,7572.0,9iXejExRaw,Color-55,Color-RY-L,Color-RY-H,Amp-Piano-L,Amp-Piano-H,0
28,29.0,5910.0,9iXejExRaw,Color-55,Color-RY-L,Color-RY-H,Noise-Pulse-L,Noise-Pulse-H,1
29,30.0,5471.0,9iXejExRaw,Color-55,Color-RY-L,Color-RY-H,Pitch-Hum-L,Pitch-Hum-H,1
30,31.0,6820.0,9iXejExRaw,Color-55,Color-YB-H,Color-YB-L,Size-Circles-H,Size-Circles-L,0
31,32.0,6525.0,9iXejExRaw,Color-55,Color-RB-L,Color-RB-H,Pitch-Hum-H,Pitch-Hum-L,0
32,33.0,3647.0,9iXejExRaw,Color-55,Brightness-Diamonds-H,Brightness-Diamonds-L,Color-RG-L,Color-RG-H,0
33,34.0,5354.0,9iXejExRaw,Color-55,Speed-SP4-L,Speed-SP4-H,Color-RB-H,Color-RB-L,1
34,35.0,33164.0,9iXejExRaw,Color-55,Color-RY-L,Color-RY-H,Affect-EB-L,Affect-EB-H,0
35,36.0,10680.0,9iXejExRaw,Color-55,Speed-SP4-L,Speed-SP4-H,Color-RY-L,Color-RY-H,0
36,37.0,10375.0,9iXejExRaw,Color-55,Affect-EB-L,Affect-EB-H,Color-RB-H,Color-RB-L,1
37,38.0,5284.0,9iXejExRaw,Color-55,Size-Circles-H,Size-Circles-L,Color-YB-H,Color-YB-L,0
38,39.0,8455.0,9iXejExRaw,Color-55,Color-RB-L,Color-RB-H,Noise-Pulse-H,Noise-Pulse-L,0
39,40.0,5857.0,9iXejExRaw,Color-55,Noise-Pulse-L,Noise-Pulse-H,Color-RY-L,Color-RY-H,0
40,41.0,14401.0,9iXejExRaw,Color-55,Color-RG-H,Color-RG-L,Size-Circles-L,Size-Circles-H,1
41,42.0,7708.0,9iXejExRaw,Color-55,Color-RG-H,Color-RG-L,Pitch-Hum-L,Pitch-Hum-H,0
42,43.0,4890.0,9iXejExRaw,Color-55,Affect-EB-H,Affect-EB-L,Color-RG-L,Color-RG-H,0
43,44.0,3368.0,9iXejExRaw,Color-55,Color-RY-L,Color-RY-H,Size-Circles-L,Size-Circles-H,0
44,45.0,4169.0,9iXejExRaw,Color-55,Brightness-Diamonds-L,Brightness-Diamonds-H,Color-RY-L,Color-RY-H,1
45,46.0,4147.0,9iXejExRaw,Color-55,Color-YB-H,Color-YB-L,Brightness-Diamonds-H,Brightness-Diamonds-L,0
46,47.0,3520.0,9iXejExRaw,Color-55,Color-RB-L,Color-RB-H,Size-Circles-H,Size-Circles-L,1
47,48.0,2705.0,9iXejExRaw,Color-55,Color-RB-L,Color-RB-H,Speed-SP4-H,Speed-SP4-L,1
48,49.0,4779.0,9iXejExRaw,Color-55,Color-RB-L,Color-RB-H,Amp-Piano-H,Amp-Piano-L,1
49,50.0,5505.0,9iXejExRaw,Color-55,Pitch-Hum-H,Pitch-Hum-L,Color-YB-H,Color-YB-L,1
50,51.0,5277.0,9iXejExRaw,Color-55,Pitch-Hum-L,Pitch-Hum-H,Color-RB-H,Color-RB-L,0
51,52.0,3338.0,9iXejExRaw,Color-55,Shape-BK4-H,Shape-BK4-L,Color-YB-H,Color-YB-L,0
52,53.0,5655.0,9iXejExRaw,Color-55,Color-RG-H,Color-RG-L,Noise-Pulse-L,Noise-Pulse-H,0
53,54.0,4020.0,9iXejExRaw,Color-55,Brightness-Diamonds-L,Brightness-Diamonds-H,Color-RB-H,Color-RB-L,0
54,55.0,5072.0,9iXejExRaw,Color-55,Pitch-Hum-H,Pitch-Hum-L,Color-RG-L,Color-RG-H,0
55,56.0,3647.0,9iXejExRaw,Color-55,Color-RG-H,Color-RG-L,Shape-BK4-L,Shape-BK4-H,1
56,57.0,3523.0,9iXejExRaw,Color-55,Shape-BK4-L,Shape-BK4-H,Color-RY-L,Color-RY-H,0
57,58.0,8161.0,9iXejExRaw,Color-55,Amp-Piano-L,Amp-Piano-H,Color-RB-H,Color-RB-L,1
58,59.0,11857.0,9iXejExRaw,Color-55,Noise-Pulse-H,Noise-Pulse-L,Color-RG-L,Color-RG-H,0
59,60.0,3377.0,9iXejExRaw,Color-55,Color-RB-L,Color-RB-H,Brightness-Diamonds-H,Brightness-Diamonds-L,0
60,61.0,3910.0,9iXejExRaw,Color-55,Color-YB-H,Color-YB-L,Speed-SP4-H,Speed-SP4-L,0
61,62.0,3824.0,9iXejExRaw,Color-55,Color-RY-L,Color-RY-H,Speed-SP4-L,Speed-SP4-H,0
62,63.0,7425.0,9iXejExRaw,Color-55,Color-YB-H,Color-YB-L,Pitch-Hum-H,Pitch-Hum-L,1
63,64.0,3559.0,9iXejExRaw,Color-55,Size-Circles-L,Size-Circles-H,Color-RB-H,Color-RB-L,1
0,1.0,3749.0,AGQhrUoC49,Color-56,Size-Triangles-L,Size-Triangles-H,Color-RY-H,Color-RY-L,1
1,2.0,4230.0,AGQhrUoC49,Color-56,Color-YB-H,Color-YB-L,Affect-SC-H,Affect-SC-L,0
2,3.0,4679.0,AGQhrUoC49,Color-56,Color-RB-L,Color-RB-H,Brightness-Diamonds-L,Brightness-Diamonds-H,1
3,4.0,5099.0,AGQhrUoC49,Color-56,Color-RY-L,Color-RY-H,Affect-SC-H,Affect-SC-L,1
4,5.0,7768.0,AGQhrUoC49,Color-56,Amp-Pulse-H,Amp-Pulse-L,Color-YB-H,Color-YB-L,0
5,6.0,8171.0,AGQhrUoC49,Color-56,Color-YB-H,Color-YB-L,Brightness-Diamonds-H,Brightness-Diamonds-L,0
6,7.0,6173.0,AGQhrUoC49,Color-56,Amp-Pulse-L,Amp-Pulse-H,Color-RY-H,Color-RY-L,1
7,8.0,5602.0,AGQhrUoC49,Color-56,Brightness-Diamonds-L,Brightness-Diamonds-H,Color-RY-H,Color-RY-L,0
8,9.0,4294.0,AGQhrUoC49,Color-56,Color-RB-L,Color-RB-H,Size-Triangles-L,Size-Triangles-H,0
9,10.0,4637.0,AGQhrUoC49,Color-56,Amp-Pulse-L,Amp-Pulse-H,Color-RB-L,Color-RB-H,0
10,11.0,4542.0,AGQhrUoC49,Color-56,Color-RG-H,Color-RG-L,Brightness-Diamonds-L,Brightness-Diamonds-H,0
11,12.0,6576.0,AGQhrUoC49,Color-56,Color-RG-H,Color-RG-L,Pitch-Pulse-L,Pitch-Pulse-H,0
12,13.0,7715.0,AGQhrUoC49,Color-56,Speed-SP4-H,Speed-SP4-L,Color-YB-H,Color-YB-L,0
13,14.0,5294.0,AGQhrUoC49,Color-56,Color-RY-L,Color-RY-H,Pitch-Pulse-H,Pitch-Pulse-L,0
14,15.0,8643.0,AGQhrUoC49,Color-56,Size-Triangles-H,Size-Triangles-L,Color-YB-H,Color-YB-L,0
15,16.0,7049.0,AGQhrUoC49,Color-56,Color-RB-L,Color-RB-H,Noise-Piano-L,Noise-Piano-H,0
16,17.0,5258.0,AGQhrUoC49,Color-56,Shape-BK4-L,Shape-BK4-H,Color-RB-L,Color-RB-H,0
17,18.0,3603.0,AGQhrUoC49,Color-56,Color-YB-H,Color-YB-L,Shape-BK4-H,Shape-BK4-L,0
18,19.0,7186.0,AGQhrUoC49,Color-56,Color-YB-H,Color-YB-L,Amp-Pulse-H,Amp-Pulse-L,0
19,20.0,3574.0,AGQhrUoC49,Color-56,Color-RY-L,Color-RY-H,Shape-BK4-H,Shape-BK4-L,1
20,21.0,6027.0,AGQhrUoC49,Color-56,Size-Triangles-H,Size-Triangles-L,Color-RG-L,Color-RG-H,1
21,22.0,3496.0,AGQhrUoC49,Color-56,Color-RB-L,Color-RB-H,Affect-SC-L,Affect-SC-H,0
22,23.0,8989.0,AGQhrUoC49,Color-56,Color-RY-L,Color-RY-H,Noise-Piano-H,Noise-Piano-L,1
23,24.0,4886.0,AGQhrUoC49,Color-56,Color-RG-H,Color-RG-L,Noise-Piano-L,Noise-Piano-H,1
24,25.0,5322.0,AGQhrUoC49,Color-56,Amp-Pulse-H,Amp-Pulse-L,Color-RG-L,Color-RG-H,1
25,26.0,3655.0,AGQhrUoC49,Color-56,Affect-SC-H,Affect-SC-L,Color-RG-L,Color-RG-H,1
26,27.0,4566.0,AGQhrUoC49,Color-56,Pitch-Pulse-L,Pitch-Pulse-H,Color-RY-H,Color-RY-L,0
27,28.0,4368.0,AGQhrUoC49,Color-56,Color-RG-H,Color-RG-L,Size-Triangles-L,Size-Triangles-H,1
28,29.0,7173.0,AGQhrUoC49,Color-56,Color-RB-L,Color-RB-H,Speed-SP4-L,Speed-SP4-H,0
29,30.0,2954.0,AGQhrUoC49,Color-56,Color-RB-L,Color-RB-H,Shape-BK4-L,Shape-BK4-H,0
30,31.0,3233.0,AGQhrUoC49,Color-56,Shape-BK4-L,Shape-BK4-H,Color-RY-H,Color-RY-L,1
31,32.0,6169.0,AGQhrUoC49,Color-56,Color-RY-L,Color-RY-H,Speed-SP4-H,Speed-SP4-L,1
32,33.0,5629.0,AGQhrUoC49,Color-56,Noise-Piano-L,Noise-Piano-H,Color-RY-H,Color-RY-L,1
33,34.0,4169.0,AGQhrUoC49,Color-56,Shape-BK4-H,Shape-BK4-L,Color-YB-H,Color-YB-L,0
34,35.0,2993.0,AGQhrUoC49,Color-56,Brightness-Diamonds-H,Brightness-Diamonds-L,Color-RG-L,Color-RG-H,0
35,36.0,8436.0,AGQhrUoC49,Color-56,Pitch-Pulse-H,Pitch-Pulse-L,Color-YB-H,Color-YB-L,1
36,37.0,3889.0,AGQhrUoC49,Color-56,Color-RB-L,Color-RB-H,Pitch-Pulse-L,Pitch-Pulse-H,1
37,38.0,3286.0,AGQhrUoC49,Color-56,Color-RB-L,Color-RB-H,Amp-Pulse-L,Amp-Pulse-H,0
38,39.0,10256.0,AGQhrUoC49,Color-56,Color-RG-H,Color-RG-L,Speed-SP4-L,Speed-SP4-H,1
39,40.0,8070.0,AGQhrUoC49,Color-56,Brightness-Diamonds-H,Brightness-Diamonds-L,Color-YB-H,Color-YB-L,0
40,41.0,4292.0,AGQhrUoC49,Color-56,Pitch-Pulse-L,Pitch-Pulse-H,Color-RB-L,Color-RB-H,1
41,42.0,4371.0,AGQhrUoC49,Color-56,Noise-Piano-L,Noise-Piano-H,Color-RB-L,Color-RB-H,0
42,43.0,4788.0,AGQhrUoC49,Color-56,Color-YB-H,Color-YB-L,Noise-Piano-H,Noise-Piano-L,0
43,44.0,4477.0,AGQhrUoC49,Color-56,Color-RY-L,Color-RY-H,Amp-Pulse-H,Amp-Pulse-L,1
44,45.0,3633.0,AGQhrUoC49,Color-56,Affect-SC-L,Affect-SC-H,Color-RY-H,Color-RY-L,1
45,46.0,3450.0,AGQhrUoC49,Color-56,Color-RG-H,Color-RG-L,Shape-BK4-L,Shape-BK4-H,1
46,47.0,5471.0,AGQhrUoC49,Color-56,Color-YB-H,Color-YB-L,Pitch-Pulse-H,Pitch-Pulse-L,1
47,48.0,2806.0,AGQhrUoC49,Color-56,Color-RG-H,Color-RG-L,Affect-SC-L,Affect-SC-H,1
48,49.0,4053.0,AGQhrUoC49,Color-56,Affect-SC-H,Affect-SC-L,Color-YB-H,Color-YB-L,0
49,50.0,4541.0,AGQhrUoC49,Color-56,Noise-Piano-H,Noise-Piano-L,Color-RG-L,Color-RG-H,1
50,51.0,3268.0,AGQhrUoC49,Color-56,Speed-SP4-H,Speed-SP4-L,Color-RG-L,Color-RG-H,1
51,52.0,4471.0,AGQhrUoC49,Color-56,Noise-Piano-H,Noise-Piano-L,Color-YB-H,Color-YB-L,0
52,53.0,2931.0,AGQhrUoC49,Color-56,Color-RY-L,Color-RY-H,Size-Triangles-H,Size-Triangles-L,1
53,54.0,6512.0,AGQhrUoC49,Color-56,Color-RG-H,Color-RG-L,Amp-Pulse-L,Amp-Pulse-H,1
54,55.0,4976.0,AGQhrUoC49,Color-56,Shape-BK4-H,Shape-BK4-L,Color-RG-L,Color-RG-H,1
55,56.0,5887.0,AGQhrUoC49,Color-56,Color-RY-L,Color-RY-H,Brightness-Diamonds-H,Brightness-Diamonds-L,0
56,57.0,3403.0,AGQhrUoC49,Color-56,Speed-SP4-L,Speed-SP4-H,Color-RB-L,Color-RB-H,0
57,58.0,3743.0,AGQhrUoC49,Color-56,Color-YB-H,Color-YB-L,Size-Triangles-H,Size-Triangles-L,0
58,59.0,4789.0,AGQhrUoC49,Color-56,Brightness-Diamonds-L,Brightness-Diamonds-H,Color-RB-L,Color-RB-H,1
59,60.0,4248.0,AGQhrUoC49,Color-56,Size-Triangles-L,Size-Triangles-H,Color-RB-L,Color-RB-H,0
60,61.0,4964.0,AGQhrUoC49,Color-56,Speed-SP4-L,Speed-SP4-H,Color-RY-H,Color-RY-L,1
61,62.0,3820.0,AGQhrUoC49,Color-56,Pitch-Pulse-H,Pitch-Pulse-L,Color-RG-L,Color-RG-H,0
62,63.0,3280.0,AGQhrUoC49,Color-56,Affect-SC-L,Affect-SC-H,Color-RB-L,Color-RB-H,0
63,64.0,4393.0,AGQhrUoC49,Color-56,Color-YB-H,Color-YB-L,Speed-SP4-H,Speed-SP4-L,0
0,1.0,6526.0,b5GuIKv94v,Color-4,Pitch-Tone-L,Pitch-Tone-H,Color-RG-H,Color-RG-L,1
1,2.0,4628.0,b5GuIKv94v,Color-4,Brightness-Diamonds-H,Brightness-Diamonds-L,Color-RY-L,Color-RY-H,0
2,3.0,4955.0,b5GuIKv94v,Color-4,Color-RY-H,Color-RY-L,Affect-SC-L,Affect-SC-H,1
3,4.0,6081.0,b5GuIKv94v,Color-4,Color-RY-H,Color-RY-L,Noise-Tone-L,Noise-Tone-H,1
4,5.0,4859.0,b5GuIKv94v,Color-4,Speed-SP2-L,Speed-SP2-H,Color-RG-H,Color-RG-L,1
5,6.0,3491.0,b5GuIKv94v,Color-4,Size-Diamonds-H,Size-Diamonds-L,Color-YB-H,Color-YB-L,0
6,7.0,2939.0,b5GuIKv94v,Color-4,Color-RY-H,Color-RY-L,Shape-BK4-L,Shape-BK4-H,1
7,8.0,4756.0,b5GuIKv94v,Color-4,Color-RG-L,Color-RG-H,Shape-BK4-H,Shape-BK4-L,1
8,9.0,7946.0,b5GuIKv94v,Color-4,Color-RG-L,Color-RG-H,Pitch-Tone-H,Pitch-Tone-L,0
9,10.0,4229.0,b5GuIKv94v,Color-4,Color-RG-L,Color-RG-H,Speed-SP2-H,Speed-SP2-L,1
10,11.0,4079.0,b5GuIKv94v,Color-4,Shape-BK4-H,Shape-BK4-L,Color-YB-H,Color-YB-L,1
11,12.0,5019.0,b5GuIKv94v,Color-4,Color-YB-H,Color-YB-L,Speed-SP2-H,Speed-SP2-L,0
12,13.0,3035.0,b5GuIKv94v,Color-4,Color-RB-L,Color-RB-H,Speed-SP2-L,Speed-SP2-H,0
13,14.0,5825.0,b5GuIKv94v,Color-4,Amp-Pulse-H,Amp-Pulse-L,Color-RY-L,Color-RY-H,1
14,15.0,2579.0,b5GuIKv94v,Color-4,Size-Diamonds-L,Size-Diamonds-H,Color-RB-L,Color-RB-H,0
15,16.0,4432.0,b5GuIKv94v,Color-4,Amp-Pulse-H,Amp-Pulse-L,Color-YB-H,Color-YB-L,0
16,17.0,8235.0,b5GuIKv94v,Color-4,Size-Diamonds-L,Size-Diamonds-H,Color-RG-H,Color-RG-L,0
17,18.0,3772.0,b5GuIKv94v,Color-4,Color-RB-L,Color-RB-H,Shape-BK4-L,Shape-BK4-H,0
18,19.0,3239.0,b5GuIKv94v,Color-4,Color-RB-L,Color-RB-H,Pitch-Tone-L,Pitch-Tone-H,0
19,20.0,2977.0,b5GuIKv94v,Color-4,Color-YB-H,Color-YB-L,Pitch-Tone-H,Pitch-Tone-L,0
20,21.0,2643.0,b5GuIKv94v,Color-4,Color-YB-H,Color-YB-L,Shape-BK4-H,Shape-BK4-L,1
21,22.0,5012.0,b5GuIKv94v,Color-4,Color-RG-L,Color-RG-H,Size-Diamonds-H,Size-Diamonds-L,1
22,23.0,3432.0,b5GuIKv94v,Color-4,Pitch-Tone-L,Pitch-Tone-H,Color-RB-L,Color-RB-H,0
23,24.0,4996.0,b5GuIKv94v,Color-4,Color-RY-H,Color-RY-L,Size-Diamonds-L,Size-Diamonds-H,1
24,25.0,4141.0,b5GuIKv94v,Color-4,Affect-SC-H,Affect-SC-L,Color-YB-H,Color-YB-L,0
25,26.0,3419.0,b5GuIKv94v,Color-4,Affect-SC-H,Affect-SC-L,Color-RY-L,Color-RY-H,1
26,27.0,4809.0,b5GuIKv94v,Color-4,Noise-Tone-L,Noise-Tone-H,Color-RG-H,Color-RG-L,1
27,28.0,4862.0,b5GuIKv94v,Color-4,Color-RG-L,Color-RG-H,Noise-Tone-H,Noise-Tone-L,1
28,29.0,3781.0,b5GuIKv94v,Color-4,Affect-SC-L,Affect-SC-H,Color-RG-H,Color-RG-L,1
29,30.0,4549.0,b5GuIKv94v,Color-4,Color-RB-L,Color-RB-H,Noise-Tone-L,Noise-Tone-H,0
30,31.0,3370.0,b5GuIKv94v,Color-4,Color-RG-L,Color-RG-H,Amp-Pulse-H,Amp-Pulse-L,1
31,32.0,3018.0,b5GuIKv94v,Color-4,Brightness-Diamonds-H,Brightness-Diamonds-L,Color-YB-H,Color-YB-L,0
32,33.0,5068.0,b5GuIKv94v,Color-4,Shape-BK4-L,Shape-BK4-H,Color-RB-L,Color-RB-H,0
33,34.0,4625.0,b5GuIKv94v,Color-4,Amp-Pulse-L,Amp-Pulse-H,Color-RG-H,Color-RG-L,1
34,35.0,3291.0,b5GuIKv94v,Color-4,Color-YB-H,Color-YB-L,Size-Diamonds-H,Size-Diamonds-L,0
35,36.0,2571.0,b5GuIKv94v,Color-4,Speed-SP2-L,Speed-SP2-H,Color-RB-L,Color-RB-H,0
36,37.0,7882.0,b5GuIKv94v,Color-4,Color-RG-L,Color-RG-H,Affect-SC-H,Affect-SC-L,1
37,38.0,3244.0,b5GuIKv94v,Color-4,Color-RB-L,Color-RB-H,Affect-SC-L,Affect-SC-H,1
38,39.0,3076.0,b5GuIKv94v,Color-4,Affect-SC-L,Affect-SC-H,Color-RB-L,Color-RB-H,0
39,40.0,4433.0,b5GuIKv94v,Color-4,Pitch-Tone-H,Pitch-Tone-L,Color-RY-L,Color-RY-H,0
40,41.0,5473.0,b5GuIKv94v,Color-4,Amp-Pulse-L,Amp-Pulse-H,Color-RB-L,Color-RB-H,0
41,42.0,5649.0,b5GuIKv94v,Color-4,Noise-Tone-H,Noise-Tone-L,Color-RY-L,Color-RY-H,1
42,43.0,3755.0,b5GuIKv94v,Color-4,Color-RB-L,Color-RB-H,Size-Diamonds-L,Size-Diamonds-H,1
43,44.0,3796.0,b5GuIKv94v,Color-4,Speed-SP2-H,Speed-SP2-L,Color-RY-L,Color-RY-H,1
44,45.0,3050.0,b5GuIKv94v,Color-4,Speed-SP2-H,Speed-SP2-L,Color-YB-H,Color-YB-L,0
45,46.0,3666.0,b5GuIKv94v,Color-4,Color-RG-L,Color-RG-H,Brightness-Diamonds-H,Brightness-Diamonds-L,0
46,47.0,5204.0,b5GuIKv94v,Color-4,Color-YB-H,Color-YB-L,Amp-Pulse-H,Amp-Pulse-L,0
47,48.0,3192.0,b5GuIKv94v,Color-4,Shape-BK4-L,Shape-BK4-H,Color-RG-H,Color-RG-L,0
48,49.0,3851.0,b5GuIKv94v,Color-4,Color-RB-L,Color-RB-H,Brightness-Diamonds-L,Brightness-Diamonds-H,0
49,50.0,4663.0,b5GuIKv94v,Color-4,Color-YB-H,Color-YB-L,Noise-Tone-H,Noise-Tone-L,0
50,51.0,3406.0,b5GuIKv94v,Color-4,Shape-BK4-H,Shape-BK4-L,Color-RY-L,Color-RY-H,0
51,52.0,3847.0,b5GuIKv94v,Color-4,Color-YB-H,Color-YB-L,Affect-SC-H,Affect-SC-L,0
52,53.0,3532.0,b5GuIKv94v,Color-4,Size-Diamonds-H,Size-Diamonds-L,Color-RY-L,Color-RY-H,0
53,54.0,8531.0,b5GuIKv94v,Color-4,Brightness-Diamonds-L,Brightness-Diamonds-H,Color-RB-L,Color-RB-H,1
54,55.0,45434.0,b5GuIKv94v,Color-4,Pitch-Tone-H,Pitch-Tone-L,Color-YB-H,Color-YB-L,0
55,56.0,3163.0,b5GuIKv94v,Color-4,Color-RY-H,Color-RY-L,Brightness-Diamonds-L,Brightness-Diamonds-H,0
56,57.0,3814.0,b5GuIKv94v,Color-4,Color-RB-L,Color-RB-H,Amp-Pulse-L,Amp-Pulse-H,0
57,58.0,3276.0,b5GuIKv94v,Color-4,Color-YB-H,Color-YB-L,Brightness-Diamonds-H,Brightness-Diamonds-L,0
58,59.0,4149.0,b5GuIKv94v,Color-4,Color-RY-H,Color-RY-L,Speed-SP2-L,Speed-SP2-H,1
59,60.0,3118.0,b5GuIKv94v,Color-4,Brightness-Diamonds-L,Brightness-Diamonds-H,Color-RG-H,Color-RG-L,0
60,61.0,3666.0,b5GuIKv94v,Color-4,Color-RY-H,Color-RY-L,Amp-Pulse-L,Amp-Pulse-H,1
61,62.0,7040.0,b5GuIKv94v,Color-4,Noise-Tone-H,Noise-Tone-L,Color-YB-H,Color-YB-L,1
62,63.0,5192.0,b5GuIKv94v,Color-4,Color-RY-H,Color-RY-L,Pitch-Tone-L,Pitch-Tone-H,0
63,64.0,108496.0,b5GuIKv94v,Color-4,Noise-Tone-L,Noise-Tone-H,Color-RB-L,Color-RB-H,0
0,1.0,6855.0,bEFXyDLRlM,Color-14,Noise-Piano-H,Noise-Piano-L,Color-RY-H,Color-RY-L,1
1,2.0,3344.0,bEFXyDLRlM,Color-14,Size-Triangles-L,Size-Triangles-H,Color-YB-L,Color-YB-H,0
2,3.0,4498.0,bEFXyDLRlM,Color-14,Color-RB-H,Color-RB-L,Affect-PD-L,Affect-PD-H,1
3,4.0,5261.0,bEFXyDLRlM,Color-14,Noise-Piano-L,Noise-Piano-H,Color-RG-H,Color-RG-L,1
4,5.0,4703.0,bEFXyDLRlM,Color-14,Amp-Piano-H,Amp-Piano-L,Color-RB-L,Color-RB-H,1
5,6.0,3551.0,bEFXyDLRlM,Color-14,Color-YB-L,Color-YB-H,Affect-PD-L,Affect-PD-H,0
6,7.0,4172.0,bEFXyDLRlM,Color-14,Color-RG-L,Color-RG-H,Amp-Piano-H,Amp-Piano-L,1
7,8.0,3201.0,bEFXyDLRlM,Color-14,Affect-PD-L,Affect-PD-H,Color-YB-L,Color-YB-H,0
8,9.0,4670.0,bEFXyDLRlM,Color-14,Color-RY-H,Color-RY-L,Pitch-Hum-H,Pitch-Hum-L,1
9,10.0,3905.0,bEFXyDLRlM,Color-14,Brightness-Circles-H,Brightness-Circles-L,Color-RY-H,Color-RY-L,1
10,11.0,6851.0,bEFXyDLRlM,Color-14,Pitch-Hum-H,Pitch-Hum-L,Color-RY-H,Color-RY-L,1
11,12.0,3594.0,bEFXyDLRlM,Color-14,Brightness-Circles-H,Brightness-Circles-L,Color-RB-L,Color-RB-H,0
12,13.0,4929.0,bEFXyDLRlM,Color-14,Color-YB-L,Color-YB-H,Speed-SP2-L,Speed-SP2-H,0
13,14.0,4752.0,bEFXyDLRlM,Color-14,Pitch-Hum-H,Pitch-Hum-L,Color-RB-L,Color-RB-H,0
14,15.0,4544.0,bEFXyDLRlM,Color-14,Affect-PD-H,Affect-PD-L,Color-RY-H,Color-RY-L,0
15,16.0,3186.0,bEFXyDLRlM,Color-14,Speed-SP2-L,Speed-SP2-H,Color-YB-L,Color-YB-H,0
16,17.0,3732.0,bEFXyDLRlM,Color-14,Color-YB-L,Color-YB-H,Shape-BK2-L,Shape-BK2-H,1
17,18.0,3037.0,bEFXyDLRlM,Color-14,Brightness-Circles-L,Brightness-Circles-H,Color-YB-L,Color-YB-H,0
18,19.0,2617.0,bEFXyDLRlM,Color-14,Color-RB-H,Color-RB-L,Size-Triangles-L,Size-Triangles-H,1
19,20.0,1962.0,bEFXyDLRlM,Color-14,Color-RY-H,Color-RY-L,Brightness-Circles-H,Brightness-Circles-L,1
20,21.0,4142.0,bEFXyDLRlM,Color-14,Color-RG-L,Color-RG-H,Noise-Piano-H,Noise-Piano-L,0
21,22.0,4509.0,bEFXyDLRlM,Color-14,Color-YB-L,Color-YB-H,Size-Triangles-L,Size-Triangles-H,0
22,23.0,2286.0,bEFXyDLRlM,Color-14,Color-RG-L,Color-RG-H,Shape-BK2-H,Shape-BK2-L,1
23,24.0,2962.0,bEFXyDLRlM,Color-14,Speed-SP2-H,Speed-SP2-L,Color-RB-L,Color-RB-H,1
24,25.0,2315.0,bEFXyDLRlM,Color-14,Affect-PD-H,Affect-PD-L,Color-RB-L,Color-RB-H,1
25,26.0,3712.0,bEFXyDLRlM,Color-14,Color-RB-H,Color-RB-L,Shape-BK2-L,Shape-BK2-H,1
26,27.0,4425.0,bEFXyDLRlM,Color-14,Brightness-Circles-L,Brightness-Circles-H,Color-RG-H,Color-RG-L,1
27,28.0,5343.0,bEFXyDLRlM,Color-14,Color-RB-H,Color-RB-L,Amp-Piano-L,Amp-Piano-H,1
28,29.0,4874.0,bEFXyDLRlM,Color-14,Pitch-Hum-L,Pitch-Hum-H,Color-RG-H,Color-RG-L,0
29,30.0,3263.0,bEFXyDLRlM,Color-14,Color-RY-H,Color-RY-L,Shape-BK2-H,Shape-BK2-L,0
30,31.0,2603.0,bEFXyDLRlM,Color-14,Size-Triangles-H,Size-Triangles-L,Color-RY-H,Color-RY-L,1
31,32.0,3955.0,bEFXyDLRlM,Color-14,Shape-BK2-L,Shape-BK2-H,Color-RG-H,Color-RG-L,1
32,33.0,2553.0,bEFXyDLRlM,Color-14,Speed-SP2-L,Speed-SP2-H,Color-RG-H,Color-RG-L,1
33,34.0,4535.0,bEFXyDLRlM,Color-14,Color-YB-L,Color-YB-H,Amp-Piano-L,Amp-Piano-H,0
34,35.0,3614.0,bEFXyDLRlM,Color-14,Color-RY-H,Color-RY-L,Speed-SP2-H,Speed-SP2-L,0
35,36.0,3604.0,bEFXyDLRlM,Color-14,Shape-BK2-H,Shape-BK2-L,Color-RY-H,Color-RY-L,0
36,37.0,5675.0,bEFXyDLRlM,Color-14,Noise-Piano-L,Noise-Piano-H,Color-YB-L,Color-YB-H,1
37,38.0,3665.0,bEFXyDLRlM,Color-14,Color-RB-H,Color-RB-L,Brightness-Circles-L,Brightness-Circles-H,1
38,39.0,2986.0,bEFXyDLRlM,Color-14,Speed-SP2-H,Speed-SP2-L,Color-RY-H,Color-RY-L,0
39,40.0,3281.0,bEFXyDLRlM,Color-14,Color-RY-H,Color-RY-L,Affect-PD-H,Affect-PD-L,1
40,41.0,4415.0,bEFXyDLRlM,Color-14,Color-YB-L,Color-YB-H,Pitch-Hum-L,Pitch-Hum-H,1
41,42.0,4490.0,bEFXyDLRlM,Color-14,Color-RG-L,Color-RG-H,Affect-PD-H,Affect-PD-L,1
42,43.0,5790.0,bEFXyDLRlM,Color-14,Color-RY-H,Color-RY-L,Noise-Piano-H,Noise-Piano-L,1
43,44.0,2978.0,bEFXyDLRlM,Color-14,Color-YB-L,Color-YB-H,Brightness-Circles-L,Brightness-Circles-H,0
44,45.0,4167.0,bEFXyDLRlM,Color-14,Color-RG-L,Color-RG-H,Pitch-Hum-H,Pitch-Hum-L,0
45,46.0,2897.0,bEFXyDLRlM,Color-14,Shape-BK2-H,Shape-BK2-L,Color-RB-L,Color-RB-H,1
46,47.0,4826.0,bEFXyDLRlM,Color-14,Color-YB-L,Color-YB-H,Noise-Piano-L,Noise-Piano-H,1
47,48.0,2696.0,bEFXyDLRlM,Color-14,Shape-BK2-L,Shape-BK2-H,Color-YB-L,Color-YB-H,1
48,49.0,4278.0,bEFXyDLRlM,Color-14,Amp-Piano-L,Amp-Piano-H,Color-RG-H,Color-RG-L,1
49,50.0,2570.0,bEFXyDLRlM,Color-14,Color-RG-L,Color-RG-H,Brightness-Circles-H,Brightness-Circles-L,1
50,51.0,5486.0,bEFXyDLRlM,Color-14,Color-RB-H,Color-RB-L,Pitch-Hum-L,Pitch-Hum-H,0
51,52.0,5395.0,bEFXyDLRlM,Color-14,Pitch-Hum-L,Pitch-Hum-H,Color-YB-L,Color-YB-H,1
52,53.0,3681.0,bEFXyDLRlM,Color-14,Color-RB-H,Color-RB-L,Speed-SP2-L,Speed-SP2-H,1
53,54.0,4840.0,bEFXyDLRlM,Color-14,Color-RB-H,Color-RB-L,Noise-Piano-L,Noise-Piano-H,0
54,55.0,3178.0,bEFXyDLRlM,Color-14,Size-Triangles-L,Size-Triangles-H,Color-RG-H,Color-RG-L,1
55,56.0,4893.0,bEFXyDLRlM,Color-14,Color-RY-H,Color-RY-L,Amp-Piano-H,Amp-Piano-L,0
56,57.0,2377.0,bEFXyDLRlM,Color-14,Color-RG-L,Color-RG-H,Speed-SP2-H,Speed-SP2-L,1
57,58.0,5439.0,bEFXyDLRlM,Color-14,Amp-Piano-H,Amp-Piano-L,Color-RY-H,Color-RY-L,0
58,59.0,5627.0,bEFXyDLRlM,Color-14,Affect-PD-L,Affect-PD-H,Color-RG-H,Color-RG-L,1
59,60.0,2303.0,bEFXyDLRlM,Color-14,Size-Triangles-H,Size-Triangles-L,Color-RB-L,Color-RB-H,0
60,61.0,5423.0,bEFXyDLRlM,Color-14,Amp-Piano-L,Amp-Piano-H,Color-YB-L,Color-YB-H,0
61,62.0,4456.0,bEFXyDLRlM,Color-14,Noise-Piano-H,Noise-Piano-L,Color-RB-L,Color-RB-H,0
62,63.0,3290.0,bEFXyDLRlM,Color-14,Color-RY-H,Color-RY-L,Size-Triangles-H,Size-Triangles-L,0
63,64.0,3328.0,bEFXyDLRlM,Color-14,Color-RG-L,Color-RG-H,Size-Triangles-H,Size-Triangles-L,1
0,1.0,5615.0,bVcCUSDWIV,Color-53,Color-YB-H,Color-YB-L,Speed-SP2-L,Speed-SP2-H,1
1,2.0,8182.0,bVcCUSDWIV,Color-53,Color-RB-L,Color-RB-H,Amp-Tone-L,Amp-Tone-H,0
2,3.0,9074.0,bVcCUSDWIV,Color-53,Size-Diamonds-H,Size-Diamonds-L,Color-YB-L,Color-YB-H,0
3,4.0,5982.0,bVcCUSDWIV,Color-53,Speed-SP2-H,Speed-SP2-L,Color-YB-L,Color-YB-H,1
4,5.0,4999.0,bVcCUSDWIV,Color-53,Affect-SC-L,Affect-SC-H,Color-RB-L,Color-RB-H,0
5,6.0,11067.0,bVcCUSDWIV,Color-53,Noise-Piano-L,Noise-Piano-H,Color-RG-H,Color-RG-L,0
6,7.0,5767.0,bVcCUSDWIV,Color-53,Color-RB-L,Color-RB-H,Brightness-Squares-L,Brightness-Squares-H,0
7,8.0,8053.0,bVcCUSDWIV,Color-53,Brightness-Squares-H,Brightness-Squares-L,Color-YB-L,Color-YB-H,0
8,9.0,4364.0,bVcCUSDWIV,Color-53,Color-RB-L,Color-RB-H,Affect-SC-L,Affect-SC-H,0
9,10.0,7049.0,bVcCUSDWIV,Color-53,Amp-Tone-H,Amp-Tone-L,Color-YB-L,Color-YB-H,1
10,11.0,4156.0,bVcCUSDWIV,Color-53,Color-RY-H,Color-RY-L,Affect-SC-H,Affect-SC-L,0
11,12.0,10272.0,bVcCUSDWIV,Color-53,Color-RG-L,Color-RG-H,Shape-BK1-H,Shape-BK1-L,1
12,13.0,7366.0,bVcCUSDWIV,Color-53,Brightness-Squares-L,Brightness-Squares-H,Color-RG-H,Color-RG-L,0
13,14.0,4682.0,bVcCUSDWIV,Color-53,Shape-BK1-L,Shape-BK1-H,Color-RB-L,Color-RB-H,0
14,15.0,3454.0,bVcCUSDWIV,Color-53,Color-RB-L,Color-RB-H,Shape-BK1-L,Shape-BK1-H,0
15,16.0,6397.0,bVcCUSDWIV,Color-53,Color-RB-L,Color-RB-H,Noise-Piano-L,Noise-Piano-H,0
16,17.0,3592.0,bVcCUSDWIV,Color-53,Color-RG-L,Color-RG-H,Affect-SC-H,Affect-SC-L,0
17,18.0,6206.0,bVcCUSDWIV,Color-53,Brightness-Squares-L,Brightness-Squares-H,Color-RB-L,Color-RB-H,1
18,19.0,7812.0,bVcCUSDWIV,Color-53,Color-RG-L,Color-RG-H,Amp-Tone-H,Amp-Tone-L,0
19,20.0,5307.0,bVcCUSDWIV,Color-53,Color-YB-H,Color-YB-L,Noise-Piano-L,Noise-Piano-H,1
20,21.0,5162.0,bVcCUSDWIV,Color-53,Color-YB-H,Color-YB-L,Pitch-Tone-L,Pitch-Tone-H,1
21,22.0,9852.0,bVcCUSDWIV,Color-53,Color-RG-L,Color-RG-H,Brightness-Squares-H,Brightness-Squares-L,0
22,23.0,12228.0,bVcCUSDWIV,Color-53,Noise-Piano-L,Noise-Piano-H,Color-RB-L,Color-RB-H,0
23,24.0,5178.0,bVcCUSDWIV,Color-53,Shape-BK1-H,Shape-BK1-L,Color-YB-L,Color-YB-H,1
24,25.0,3910.0,bVcCUSDWIV,Color-53,Speed-SP2-L,Speed-SP2-H,Color-RG-H,Color-RG-L,0
25,26.0,5944.0,bVcCUSDWIV,Color-53,Color-RY-H,Color-RY-L,Noise-Piano-H,Noise-Piano-L,1
26,27.0,6125.0,bVcCUSDWIV,Color-53,Amp-Tone-L,Amp-Tone-H,Color-RG-H,Color-RG-L,0
27,28.0,3036.0,bVcCUSDWIV,Color-53,Color-YB-H,Color-YB-L,Brightness-Squares-L,Brightness-Squares-H,0
28,29.0,6883.0,bVcCUSDWIV,Color-53,Pitch-Tone-H,Pitch-Tone-L,Color-RY-H,Color-RY-L,1
29,30.0,6290.0,bVcCUSDWIV,Color-53,Color-RY-H,Color-RY-L,Size-Diamonds-H,Size-Diamonds-L,0
30,31.0,3568.0,bVcCUSDWIV,Color-53,Color-RY-H,Color-RY-L,Speed-SP2-H,Speed-SP2-L,1
31,32.0,5501.0,bVcCUSDWIV,Color-53,Amp-Tone-H,Amp-Tone-L,Color-RY-H,Color-RY-L,1
32,33.0,5239.0,bVcCUSDWIV,Color-53,Pitch-Tone-L,Pitch-Tone-H,Color-RG-H,Color-RG-L,0
33,34.0,4487.0,bVcCUSDWIV,Color-53,Color-RG-L,Color-RG-H,Pitch-Tone-H,Pitch-Tone-L,0
34,35.0,5526.0,bVcCUSDWIV,Color-53,Color-RB-L,Color-RB-H,Speed-SP2-L,Speed-SP2-H,0
35,36.0,6368.0,bVcCUSDWIV,Color-53,Color-YB-H,Color-YB-L,Size-Diamonds-L,Size-Diamonds-H,0
36,37.0,3444.0,bVcCUSDWIV,Color-53,Shape-BK1-H,Shape-BK1-L,Color-RY-H,Color-RY-L,0
37,38.0,3980.0,bVcCUSDWIV,Color-53,Color-RG-L,Color-RG-H,Size-Diamonds-H,Size-Diamonds-L,1
38,39.0,5214.0,bVcCUSDWIV,Color-53,Affect-SC-L,Affect-SC-H,Color-RG-H,Color-RG-L,0
39,40.0,12421.0,bVcCUSDWIV,Color-53,Color-RY-H,Color-RY-L,Amp-Tone-H,Amp-Tone-L,0
40,41.0,6869.0,bVcCUSDWIV,Color-53,Color-RY-H,Color-RY-L,Pitch-Tone-H,Pitch-Tone-L,1
41,42.0,8340.0,bVcCUSDWIV,Color-53,Color-RY-H,Color-RY-L,Shape-BK1-H,Shape-BK1-L,1
42,43.0,5199.0,bVcCUSDWIV,Color-53,Pitch-Tone-L,Pitch-Tone-H,Color-RB-L,Color-RB-H,0
43,44.0,3692.0,bVcCUSDWIV,Color-53,Size-Diamonds-L,Size-Diamonds-H,Color-RG-H,Color-RG-L,1
44,45.0,3578.0,bVcCUSDWIV,Color-53,Color-RG-L,Color-RG-H,Speed-SP2-H,Speed-SP2-L,0
45,46.0,3961.0,bVcCUSDWIV,Color-53,Color-YB-H,Color-YB-L,Shape-BK1-L,Shape-BK1-H,1
46,47.0,2958.0,bVcCUSDWIV,Color-53,Speed-SP2-L,Speed-SP2-H,Color-RB-L,Color-RB-H,0
47,48.0,4636.0,bVcCUSDWIV,Color-53,Amp-Tone-L,Amp-Tone-H,Color-RB-L,Color-RB-H,0
48,49.0,3546.0,bVcCUSDWIV,Color-53,Affect-SC-H,Affect-SC-L,Color-YB-L,Color-YB-H,1
49,50.0,3662.0,bVcCUSDWIV,Color-53,Color-RY-H,Color-RY-L,Brightness-Squares-H,Brightness-Squares-L,1
50,51.0,5231.0,bVcCUSDWIV,Color-53,Noise-Piano-H,Noise-Piano-L,Color-YB-L,Color-YB-H,1
51,52.0,3775.0,bVcCUSDWIV,Color-53,Color-RB-L,Color-RB-H,Size-Diamonds-L,Size-Diamonds-H,0
52,53.0,7396.0,bVcCUSDWIV,Color-53,Color-RG-L,Color-RG-H,Noise-Piano-H,Noise-Piano-L,0
53,54.0,2872.0,bVcCUSDWIV,Color-53,Size-Diamonds-L,Size-Diamonds-H,Color-RB-L,Color-RB-H,0
54,55.0,4938.0,bVcCUSDWIV,Color-53,Noise-Piano-H,Noise-Piano-L,Color-RY-H,Color-RY-L,1
55,56.0,5191.0,bVcCUSDWIV,Color-53,Pitch-Tone-H,Pitch-Tone-L,Color-YB-L,Color-YB-H,1
56,57.0,5607.0,bVcCUSDWIV,Color-53,Color-RB-L,Color-RB-H,Pitch-Tone-L,Pitch-Tone-H,0
57,58.0,5047.0,bVcCUSDWIV,Color-53,Brightness-Squares-H,Brightness-Squares-L,Color-RY-H,Color-RY-L,1
58,59.0,3901.0,bVcCUSDWIV,Color-53,Size-Diamonds-H,Size-Diamonds-L,Color-RY-H,Color-RY-L,0
59,60.0,2871.0,bVcCUSDWIV,Color-53,Affect-SC-H,Affect-SC-L,Color-RY-H,Color-RY-L,1
60,61.0,3500.0,bVcCUSDWIV,Color-53,Speed-SP2-H,Speed-SP2-L,Color-RY-H,Color-RY-L,1
61,62.0,4056.0,bVcCUSDWIV,Color-53,Color-YB-H,Color-YB-L,Amp-Tone-L,Amp-Tone-H,1
62,63.0,3220.0,bVcCUSDWIV,Color-53,Shape-BK1-L,Shape-BK1-H,Color-RG-H,Color-RG-L,0
63,64.0,3028.0,bVcCUSDWIV,Color-53,Color-YB-H,Color-YB-L,Affect-SC-L,Affect-SC-H,1
0,1.0,8587.0,d34fD28g2A,Color-15,Color-RY-H,Color-RY-L,Affect-PD-H,Affect-PD-L,1
1,2.0,9440.0,d34fD28g2A,Color-15,Shape-BK1-H,Shape-BK1-L,Color-RY-H,Color-RY-L,0
2,3.0,12982.0,d34fD28g2A,Color-15,Color-YB-H,Color-YB-L,Noise-Pulse-L,Noise-Pulse-H,0
3,4.0,7990.0,d34fD28g2A,Color-15,Affect-PD-L,Affect-PD-H,Color-RG-L,Color-RG-H,1
4,5.0,12752.0,d34fD28g2A,Color-15,Pitch-Piano-H,Pitch-Piano-L,Color-YB-L,Color-YB-H,1
5,6.0,10447.0,d34fD28g2A,Color-15,Color-YB-H,Color-YB-L,Brightness-Circles-L,Brightness-Circles-H,0
6,7.0,5627.0,d34fD28g2A,Color-15,Color-YB-H,Color-YB-L,Shape-BK1-L,Shape-BK1-H,1
7,8.0,9309.0,d34fD28g2A,Color-15,Speed-SP1-L,Speed-SP1-H,Color-RG-L,Color-RG-H,0
8,9.0,6448.0,d34fD28g2A,Color-15,Speed-SP1-H,Speed-SP1-L,Color-RY-H,Color-RY-L,0
9,10.0,8496.0,d34fD28g2A,Color-15,Pitch-Piano-H,Pitch-Piano-L,Color-RY-H,Color-RY-L,0
10,11.0,7928.0,d34fD28g2A,Color-15,Color-RG-L,Color-RG-H,Affect-PD-L,Affect-PD-H,1
11,12.0,11189.0,d34fD28g2A,Color-15,Size-Triangles-H,Size-Triangles-L,Color-YB-L,Color-YB-H,0
12,13.0,10525.0,d34fD28g2A,Color-15,Color-RY-H,Color-RY-L,Pitch-Piano-H,Pitch-Piano-L,0
13,14.0,9815.0,d34fD28g2A,Color-15,Brightness-Circles-L,Brightness-Circles-H,Color-RG-L,Color-RG-H,0
14,15.0,14255.0,d34fD28g2A,Color-15,Amp-Hum-H,Amp-Hum-L,Color-RY-H,Color-RY-L,0
15,16.0,14141.0,d34fD28g2A,Color-15,Color-RY-H,Color-RY-L,Noise-Pulse-H,Noise-Pulse-L,1
16,17.0,5886.0,d34fD28g2A,Color-15,Color-YB-H,Color-YB-L,Size-Triangles-L,Size-Triangles-H,0
17,18.0,7666.0,d34fD28g2A,Color-15,Brightness-Circles-H,Brightness-Circles-L,Color-RY-H,Color-RY-L,1
18,19.0,11015.0,d34fD28g2A,Color-15,Color-YB-H,Color-YB-L,Affect-PD-L,Affect-PD-H,1
19,20.0,10549.0,d34fD28g2A,Color-15,Color-RB-L,Color-RB-H,Affect-PD-H,Affect-PD-L,0
20,21.0,8017.0,d34fD28g2A,Color-15,Color-RB-L,Color-RB-H,Noise-Pulse-H,Noise-Pulse-L,0
21,22.0,7539.0,d34fD28g2A,Color-15,Color-RY-H,Color-RY-L,Size-Triangles-H,Size-Triangles-L,1
22,23.0,8771.0,d34fD28g2A,Color-15,Pitch-Piano-L,Pitch-Piano-H,Color-RB-H,Color-RB-L,1
23,24.0,6409.0,d34fD28g2A,Color-15,Color-RB-L,Color-RB-H,Shape-BK1-H,Shape-BK1-L,1
24,25.0,13203.0,d34fD28g2A,Color-15,Noise-Pulse-H,Noise-Pulse-L,Color-YB-L,Color-YB-H,0
25,26.0,9738.0,d34fD28g2A,Color-15,Color-YB-H,Color-YB-L,Pitch-Piano-L,Pitch-Piano-H,1
26,27.0,6297.0,d34fD28g2A,Color-15,Speed-SP1-H,Speed-SP1-L,Color-YB-L,Color-YB-H,1
27,28.0,8373.0,d34fD28g2A,Color-15,Color-RB-L,Color-RB-H,Speed-SP1-H,Speed-SP1-L,1
28,29.0,13914.0,d34fD28g2A,Color-15,Noise-Pulse-L,Noise-Pulse-H,Color-RG-L,Color-RG-H,0
29,30.0,5552.0,d34fD28g2A,Color-15,Size-Triangles-H,Size-Triangles-L,Color-RY-H,Color-RY-L,1
30,31.0,6920.0,d34fD28g2A,Color-15,Color-YB-H,Color-YB-L,Speed-SP1-L,Speed-SP1-H,1
31,32.0,5572.0,d34fD28g2A,Color-15,Color-RG-L,Color-RG-H,Speed-SP1-L,Speed-SP1-H,0
32,33.0,6459.0,d34fD28g2A,Color-15,Color-YB-H,Color-YB-L,Amp-Hum-L,Amp-Hum-H,1
33,34.0,6116.0,d34fD28g2A,Color-15,Brightness-Circles-H,Brightness-Circles-L,Color-YB-L,Color-YB-H,0
34,35.0,6739.0,d34fD28g2A,Color-15,Shape-BK1-L,Shape-BK1-H,Color-RG-L,Color-RG-H,0
35,36.0,6217.0,d34fD28g2A,Color-15,Color-RB-L,Color-RB-H,Pitch-Piano-H,Pitch-Piano-L,1
36,37.0,6691.0,d34fD28g2A,Color-15,Affect-PD-H,Affect-PD-L,Color-RY-H,Color-RY-L,1
37,38.0,9692.0,d34fD28g2A,Color-15,Color-RG-L,Color-RG-H,Brightness-Circles-L,Brightness-Circles-H,0
38,39.0,4832.0,d34fD28g2A,Color-15,Color-RY-H,Color-RY-L,Speed-SP1-H,Speed-SP1-L,0
39,40.0,9147.0,d34fD28g2A,Color-15,Color-RB-L,Color-RB-H,Size-Triangles-H,Size-Triangles-L,0
40,41.0,6768.0,d34fD28g2A,Color-15,Pitch-Piano-L,Pitch-Piano-H,Color-RG-L,Color-RG-H,0
41,42.0,4384.0,d34fD28g2A,Color-15,Color-RY-H,Color-RY-L,Shape-BK1-H,Shape-BK1-L,0
42,43.0,5229.0,d34fD28g2A,Color-15,Shape-BK1-H,Shape-BK1-L,Color-YB-L,Color-YB-H,1
43,44.0,6779.0,d34fD28g2A,Color-15,Color-RB-L,Color-RB-H,Amp-Hum-H,Amp-Hum-L,1
44,45.0,11577.0,d34fD28g2A,Color-15,Color-RB-L,Color-RB-H,Brightness-Circles-H,Brightness-Circles-L,0
45,46.0,6160.0,d34fD28g2A,Color-15,Shape-BK1-L,Shape-BK1-H,Color-RB-H,Color-RB-L,1
46,47.0,4051.0,d34fD28g2A,Color-15,Size-Triangles-L,Size-Triangles-H,Color-RB-H,Color-RB-L,0
47,48.0,7856.0,d34fD28g2A,Color-15,Amp-Hum-H,Amp-Hum-L,Color-YB-L,Color-YB-H,1
48,49.0,5321.0,d34fD28g2A,Color-15,Speed-SP1-L,Speed-SP1-H,Color-RB-H,Color-RB-L,1
49,50.0,7284.0,d34fD28g2A,Color-15,Color-RG-L,Color-RG-H,Size-Triangles-L,Size-Triangles-H,1
50,51.0,5902.0,d34fD28g2A,Color-15,Color-RG-L,Color-RG-H,Noise-Pulse-L,Noise-Pulse-H,0
51,52.0,7351.0,d34fD28g2A,Color-15,Noise-Pulse-L,Noise-Pulse-H,Color-RB-H,Color-RB-L,0
52,53.0,7791.0,d34fD28g2A,Color-15,Color-RY-H,Color-RY-L,Amp-Hum-H,Amp-Hum-L,0
53,54.0,4375.0,d34fD28g2A,Color-15,Affect-PD-L,Affect-PD-H,Color-RB-H,Color-RB-L,0
54,55.0,7393.0,d34fD28g2A,Color-15,Affect-PD-H,Affect-PD-L,Color-YB-L,Color-YB-H,1
55,56.0,8070.0,d34fD28g2A,Color-15,Color-RG-L,Color-RG-H,Amp-Hum-L,Amp-Hum-H,0
56,57.0,6797.0,d34fD28g2A,Color-15,Amp-Hum-L,Amp-Hum-H,Color-RG-L,Color-RG-H,0
57,58.0,11551.0,d34fD28g2A,Color-15,Color-RG-L,Color-RG-H,Pitch-Piano-L,Pitch-Piano-H,0
58,59.0,5562.0,d34fD28g2A,Color-15,Brightness-Circles-L,Brightness-Circles-H,Color-RB-H,Color-RB-L,0
59,60.0,6779.0,d34fD28g2A,Color-15,Color-RY-H,Color-RY-L,Brightness-Circles-H,Brightness-Circles-L,0
60,61.0,4132.0,d34fD28g2A,Color-15,Color-RG-L,Color-RG-H,Shape-BK1-L,Shape-BK1-H,0
61,62.0,11452.0,d34fD28g2A,Color-15,Noise-Pulse-H,Noise-Pulse-L,Color-RY-H,Color-RY-L,0
62,63.0,6630.0,d34fD28g2A,Color-15,Size-Triangles-L,Size-Triangles-H,Color-RG-L,Color-RG-H,1
63,64.0,7147.0,d34fD28g2A,Color-15,Amp-Hum-L,Amp-Hum-H,Color-RB-H,Color-RB-L,1
0,1.0,5451.0,dP0LJSbWRa,Color-59,Amp-Tone-L,Amp-Tone-H,Color-YB-L,Color-YB-H,0
1,2.0,5531.0,dP0LJSbWRa,Color-59,Size-Circles-L,Size-Circles-H,Color-YB-L,Color-YB-H,0
2,3.0,6373.0,dP0LJSbWRa,Color-59,Pitch-Hum-H,Pitch-Hum-L,Color-RG-H,Color-RG-L,0
