"X","trialNum","rt","subject","condition","InducerL","InducerR","ConcurrentL","ConcurrentR","choice"
0,1,7028,"1d8E46bnpK","Affect-2","Affect-PD-L","Affect-PD-H","Pitch-Tone-H","Pitch-Tone-L",0
1,2,8139,"1d8E46bnpK","Affect-2","Pitch-Tone-L","Pitch-Tone-H","Affect-HS-L","Affect-HS-H",0
2,3,3655,"1d8E46bnpK","Affect-2","Speed-SP4-H","Speed-SP4-L","Affect-EB-L","Affect-EB-H",1
3,4,4712,"1d8E46bnpK","Affect-2","Affect-SC-H","Affect-SC-L","Amp-Tone-H","Amp-Tone-L",0
4,5,4412,"1d8E46bnpK","Affect-2","Brightness-Diamonds-H","Brightness-Diamonds-L","Affect-SC-H","Affect-SC-L",0
5,6,5208,"1d8E46bnpK","Affect-2","Amp-Tone-L","Amp-Tone-H","Affect-HS-L","Affect-HS-H",0
6,7,4758,"1d8E46bnpK","Affect-2","Affect-PD-L","Affect-PD-H","Noise-Tone-H","Noise-Tone-L",0
7,8,4281,"1d8E46bnpK","Affect-2","Affect-SC-H","Affect-SC-L","Shape-BK3-H","Shape-BK3-L",0
8,9,5550,"1d8E46bnpK","Affect-2","Affect-EB-H","Affect-EB-L","Pitch-Tone-L","Pitch-Tone-H",1
9,10,4751,"1d8E46bnpK","Affect-2","Brightness-Diamonds-L","Brightness-Diamonds-H","Affect-PD-H","Affect-PD-L",1
10,11,4074,"1d8E46bnpK","Affect-2","Color-YB-H","Color-YB-L","Affect-EB-L","Affect-EB-H",1
11,12,5142,"1d8E46bnpK","Affect-2","Affect-EB-H","Affect-EB-L","Amp-Tone-L","Amp-Tone-H",1
12,13,4107,"1d8E46bnpK","Affect-2","Affect-HS-L","Affect-HS-H","Noise-Tone-L","Noise-Tone-H",1
13,14,3380,"1d8E46bnpK","Affect-2","Shape-BK3-H","Shape-BK3-L","Affect-SC-H","Affect-SC-L",0
14,15,2939,"1d8E46bnpK","Affect-2","Color-YB-H","Color-YB-L","Affect-SC-H","Affect-SC-L",0
15,16,3373,"1d8E46bnpK","Affect-2","Size-Squares-H","Size-Squares-L","Affect-SC-H","Affect-SC-L",0
16,17,5565,"1d8E46bnpK","Affect-2","Affect-PD-L","Affect-PD-H","Shape-BK3-H","Shape-BK3-L",1
17,18,2817,"1d8E46bnpK","Affect-2","Affect-PD-L","Affect-PD-H","Size-Squares-H","Size-Squares-L",1
18,19,3683,"1d8E46bnpK","Affect-2","Speed-SP4-H","Speed-SP4-L","Affect-SC-H","Affect-SC-L",0
19,20,4317,"1d8E46bnpK","Affect-2","Affect-HS-L","Affect-HS-H","Amp-Tone-L","Amp-Tone-H",0
20,21,4240,"1d8E46bnpK","Affect-2","Affect-PD-L","Affect-PD-H","Amp-Tone-H","Amp-Tone-L",1
21,22,3400,"1d8E46bnpK","Affect-2","Affect-EB-H","Affect-EB-L","Speed-SP4-L","Speed-SP4-H",1
22,23,5163,"1d8E46bnpK","Affect-2","Affect-HS-L","Affect-HS-H","Pitch-Tone-L","Pitch-Tone-H",0
23,24,5343,"1d8E46bnpK","Affect-2","Shape-BK3-L","Shape-BK3-H","Affect-HS-L","Affect-HS-H",0
24,25,2175,"1d8E46bnpK","Affect-2","Size-Squares-L","Size-Squares-H","Affect-HS-L","Affect-HS-H",0
25,26,2978,"1d8E46bnpK","Affect-2","Affect-HS-L","Affect-HS-H","Speed-SP4-L","Speed-SP4-H",0
26,27,3950,"1d8E46bnpK","Affect-2","Affect-EB-H","Affect-EB-L","Size-Squares-L","Size-Squares-H",1
27,28,5044,"1d8E46bnpK","Affect-2","Noise-Tone-H","Noise-Tone-L","Affect-EB-L","Affect-EB-H",0
28,29,2576,"1d8E46bnpK","Affect-2","Affect-SC-H","Affect-SC-L","Speed-SP4-H","Speed-SP4-L",0
29,30,3455,"1d8E46bnpK","Affect-2","Color-YB-L","Color-YB-H","Affect-HS-L","Affect-HS-H",0
30,31,6565,"1d8E46bnpK","Affect-2","Pitch-Tone-L","Pitch-Tone-H","Affect-PD-H","Affect-PD-L",1
31,32,5934,"1d8E46bnpK","Affect-2","Pitch-Tone-H","Pitch-Tone-L","Affect-EB-L","Affect-EB-H",1
32,33,3563,"1d8E46bnpK","Affect-2","Brightness-Diamonds-H","Brightness-Diamonds-L","Affect-EB-L","Affect-EB-H",1
33,34,3485,"1d8E46bnpK","Affect-2","Affect-PD-L","Affect-PD-H","Brightness-Diamonds-H","Brightness-Diamonds-L",1
34,35,2081,"1d8E46bnpK","Affect-2","Affect-HS-L","Affect-HS-H","Size-Squares-L","Size-Squares-H",0
35,36,4211,"1d8E46bnpK","Affect-2","Affect-EB-H","Affect-EB-L","Noise-Tone-L","Noise-Tone-H",0
36,37,2573,"1d8E46bnpK","Affect-2","Affect-SC-H","Affect-SC-L","Size-Squares-H","Size-Squares-L",1
37,38,2022,"1d8E46bnpK","Affect-2","Brightness-Diamonds-L","Brightness-Diamonds-H","Affect-HS-L","Affect-HS-H",0
38,39,2870,"1d8E46bnpK","Affect-2","Affect-PD-L","Affect-PD-H","Color-YB-H","Color-YB-L",1
39,40,2624,"1d8E46bnpK","Affect-2","Affect-PD-L","Affect-PD-H","Speed-SP4-H","Speed-SP4-L",1
40,41,2295,"1d8E46bnpK","Affect-2","Speed-SP4-L","Speed-SP4-H","Affect-HS-L","Affect-HS-H",0
41,42,3805,"1d8E46bnpK","Affect-2","Amp-Tone-L","Amp-Tone-H","Affect-PD-H","Affect-PD-L",1
42,43,3103,"1d8E46bnpK","Affect-2","Affect-HS-L","Affect-HS-H","Brightness-Diamonds-L","Brightness-Diamonds-H",0
43,44,2373,"1d8E46bnpK","Affect-2","Affect-SC-H","Affect-SC-L","Brightness-Diamonds-H","Brightness-Diamonds-L",0
44,45,2411,"1d8E46bnpK","Affect-2","Affect-EB-H","Affect-EB-L","Brightness-Diamonds-L","Brightness-Diamonds-H",1
45,46,3022,"1d8E46bnpK","Affect-2","Shape-BK3-H","Shape-BK3-L","Affect-EB-L","Affect-EB-H",1
46,47,2966,"1d8E46bnpK","Affect-2","Size-Squares-L","Size-Squares-H","Affect-PD-H","Affect-PD-L",1
47,48,4938,"1d8E46bnpK","Affect-2","Affect-HS-L","Affect-HS-H","Shape-BK3-L","Shape-BK3-H",0
48,49,3696,"1d8E46bnpK","Affect-2","Affect-SC-H","Affect-SC-L","Noise-Tone-H","Noise-Tone-L",0
49,50,2348,"1d8E46bnpK","Affect-2","Affect-SC-H","Affect-SC-L","Color-YB-H","Color-YB-L",0
50,51,5859,"1d8E46bnpK","Affect-2","Noise-Tone-L","Noise-Tone-H","Affect-HS-L","Affect-HS-H",1
51,52,7244,"1d8E46bnpK","Affect-2","Affect-SC-H","Affect-SC-L","Pitch-Tone-H","Pitch-Tone-L",0
52,53,4314,"1d8E46bnpK","Affect-2","Size-Squares-H","Size-Squares-L","Affect-EB-L","Affect-EB-H",1
53,54,4645,"1d8E46bnpK","Affect-2","Color-YB-L","Color-YB-H","Affect-PD-H","Affect-PD-L",1
54,55,297797,"1d8E46bnpK","Affect-2","Noise-Tone-L","Noise-Tone-H","Affect-PD-H","Affect-PD-L",0
55,56,2745,"1d8E46bnpK","Affect-2","Shape-BK3-L","Shape-BK3-H","Affect-PD-H","Affect-PD-L",1
56,57,4454,"1d8E46bnpK","Affect-2","Amp-Tone-H","Amp-Tone-L","Affect-SC-H","Affect-SC-L",0
57,58,2452,"1d8E46bnpK","Affect-2","Speed-SP4-L","Speed-SP4-H","Affect-PD-H","Affect-PD-L",1
58,59,3688,"1d8E46bnpK","Affect-2","Noise-Tone-H","Noise-Tone-L","Affect-SC-H","Affect-SC-L",0
59,60,3787,"1d8E46bnpK","Affect-2","Affect-EB-H","Affect-EB-L","Shape-BK3-L","Shape-BK3-H",1
60,61,3914,"1d8E46bnpK","Affect-2","Pitch-Tone-H","Pitch-Tone-L","Affect-SC-H","Affect-SC-L",0
61,62,3784,"1d8E46bnpK","Affect-2","Amp-Tone-H","Amp-Tone-L","Affect-EB-L","Affect-EB-H",1
62,63,4350,"1d8E46bnpK","Affect-2","Affect-EB-H","Affect-EB-L","Color-YB-L","Color-YB-H",1
63,64,2645,"1d8E46bnpK","Affect-2","Affect-HS-L","Affect-HS-H","Color-YB-L","Color-YB-H",0
0,1,3823,"2Nt4vVUsEA","Affect-16","Affect-EB-L","Affect-EB-H","Shape-BK4-H","Shape-BK4-L",1
1,2,2356,"2Nt4vVUsEA","Affect-16","Affect-HS-H","Affect-HS-L","Brightness-Diamonds-H","Brightness-Diamonds-L",0
2,3,2715,"2Nt4vVUsEA","Affect-16","Affect-HS-H","Affect-HS-L","Shape-BK4-H","Shape-BK4-L",0
3,4,3353,"2Nt4vVUsEA","Affect-16","Affect-SC-L","Affect-SC-H","Color-RY-L","Color-RY-H",0
4,5,6043,"2Nt4vVUsEA","Affect-16","Affect-SC-L","Affect-SC-H","Amp-Piano-L","Amp-Piano-H",0
5,6,2762,"2Nt4vVUsEA","Affect-16","Affect-PD-H","Affect-PD-L","Size-Triangles-L","Size-Triangles-H",1
6,7,2175,"2Nt4vVUsEA","Affect-16","Color-RY-L","Color-RY-H","Affect-SC-L","Affect-SC-H",0
7,8,5838,"2Nt4vVUsEA","Affect-16","Affect-HS-H","Affect-HS-L","Pitch-Piano-H","Pitch-Piano-L",0
8,9,3533,"2Nt4vVUsEA","Affect-16","Speed-SP1-H","Speed-SP1-L","Affect-HS-H","Affect-HS-L",0
9,10,4098,"2Nt4vVUsEA","Affect-16","Affect-HS-H","Affect-HS-L","Noise-Piano-H","Noise-Piano-L",1
10,11,3103,"2Nt4vVUsEA","Affect-16","Speed-SP1-H","Speed-SP1-L","Affect-PD-L","Affect-PD-H",0
11,12,2630,"2Nt4vVUsEA","Affect-16","Affect-PD-H","Affect-PD-L","Speed-SP1-L","Speed-SP1-H",0
12,13,2923,"2Nt4vVUsEA","Affect-16","Affect-HS-H","Affect-HS-L","Size-Triangles-H","Size-Triangles-L",0
13,14,4059,"2Nt4vVUsEA","Affect-16","Brightness-Diamonds-H","Brightness-Diamonds-L","Affect-HS-H","Affect-HS-L",0
14,15,6119,"2Nt4vVUsEA","Affect-16","Noise-Piano-L","Noise-Piano-H","Affect-EB-H","Affect-EB-L",0
15,16,4922,"2Nt4vVUsEA","Affect-16","Color-RY-L","Color-RY-H","Affect-EB-H","Affect-EB-L",1
16,17,6307,"2Nt4vVUsEA","Affect-16","Affect-SC-L","Affect-SC-H","Noise-Piano-L","Noise-Piano-H",0
17,18,3008,"2Nt4vVUsEA","Affect-16","Speed-SP1-L","Speed-SP1-H","Affect-EB-H","Affect-EB-L",1
18,19,4291,"2Nt4vVUsEA","Affect-16","Pitch-Piano-L","Pitch-Piano-H","Affect-SC-L","Affect-SC-H",0
19,20,5766,"2Nt4vVUsEA","Affect-16","Color-RY-H","Color-RY-L","Affect-HS-H","Affect-HS-L",0
20,21,17814,"2Nt4vVUsEA","Affect-16","Size-Triangles-L","Size-Triangles-H","Affect-EB-H","Affect-EB-L",1
21,22,3032,"2Nt4vVUsEA","Affect-16","Speed-SP1-L","Speed-SP1-H","Affect-SC-L","Affect-SC-H",0
22,23,12493,"2Nt4vVUsEA","Affect-16","Brightness-Diamonds-H","Brightness-Diamonds-L","Affect-PD-L","Affect-PD-H",0
23,24,3992,"2Nt4vVUsEA","Affect-16","Brightness-Diamonds-L","Brightness-Diamonds-H","Affect-SC-L","Affect-SC-H",0
24,25,4583,"2Nt4vVUsEA","Affect-16","Amp-Piano-H","Amp-Piano-L","Affect-HS-H","Affect-HS-L",0
25,26,26200,"2Nt4vVUsEA","Affect-16","Affect-EB-L","Affect-EB-H","Size-Triangles-H","Size-Triangles-L",1
26,27,5617,"2Nt4vVUsEA","Affect-16","Affect-HS-H","Affect-HS-L","Amp-Piano-H","Amp-Piano-L",0
27,28,2608,"2Nt4vVUsEA","Affect-16","Size-Triangles-H","Size-Triangles-L","Affect-PD-L","Affect-PD-H",0
28,29,2988,"2Nt4vVUsEA","Affect-16","Affect-PD-H","Affect-PD-L","Brightness-Diamonds-L","Brightness-Diamonds-H",0
29,30,2546,"2Nt4vVUsEA","Affect-16","Size-Triangles-L","Size-Triangles-H","Affect-SC-L","Affect-SC-H",0
30,31,2520,"2Nt4vVUsEA","Affect-16","Affect-HS-H","Affect-HS-L","Speed-SP1-H","Speed-SP1-L",0
31,32,4450,"2Nt4vVUsEA","Affect-16","Color-RY-H","Color-RY-L","Affect-PD-L","Affect-PD-H",0
32,33,4976,"2Nt4vVUsEA","Affect-16","Amp-Piano-L","Amp-Piano-H","Affect-EB-H","Affect-EB-L",1
33,34,4713,"2Nt4vVUsEA","Affect-16","Affect-EB-L","Affect-EB-H","Noise-Piano-H","Noise-Piano-L",0
34,35,3547,"2Nt4vVUsEA","Affect-16","Noise-Piano-H","Noise-Piano-L","Affect-PD-L","Affect-PD-H",0
35,36,3879,"2Nt4vVUsEA","Affect-16","Affect-PD-H","Affect-PD-L","Pitch-Piano-L","Pitch-Piano-H",1
36,37,2594,"2Nt4vVUsEA","Affect-16","Affect-HS-H","Affect-HS-L","Color-RY-H","Color-RY-L",1
37,38,2453,"2Nt4vVUsEA","Affect-16","Shape-BK4-H","Shape-BK4-L","Affect-PD-L","Affect-PD-H",0
38,39,2843,"2Nt4vVUsEA","Affect-16","Affect-SC-L","Affect-SC-H","Speed-SP1-L","Speed-SP1-H",0
39,40,3632,"2Nt4vVUsEA","Affect-16","Affect-EB-L","Affect-EB-H","Brightness-Diamonds-H","Brightness-Diamonds-L",1
40,41,3394,"2Nt4vVUsEA","Affect-16","Affect-PD-H","Affect-PD-L","Color-RY-L","Color-RY-H",0
41,42,6016,"2Nt4vVUsEA","Affect-16","Affect-PD-H","Affect-PD-L","Amp-Piano-L","Amp-Piano-H",0
42,43,216153,"2Nt4vVUsEA","Affect-16","Affect-EB-L","Affect-EB-H","Speed-SP1-H","Speed-SP1-L",1
43,44,2318,"2Nt4vVUsEA","Affect-16","Affect-SC-L","Affect-SC-H","Size-Triangles-L","Size-Triangles-H",0
44,45,5150,"2Nt4vVUsEA","Affect-16","Shape-BK4-H","Shape-BK4-L","Affect-HS-H","Affect-HS-L",0
45,46,5674,"2Nt4vVUsEA","Affect-16","Noise-Piano-L","Noise-Piano-H","Affect-SC-L","Affect-SC-H",1
46,47,10595,"2Nt4vVUsEA","Affect-16","Pitch-Piano-H","Pitch-Piano-L","Affect-HS-H","Affect-HS-L",0
47,48,3085,"2Nt4vVUsEA","Affect-16","Brightness-Diamonds-L","Brightness-Diamonds-H","Affect-EB-H","Affect-EB-L",1
48,49,4588,"2Nt4vVUsEA","Affect-16","Affect-PD-H","Affect-PD-L","Noise-Piano-L","Noise-Piano-H",0
49,50,7371,"2Nt4vVUsEA","Affect-16","Pitch-Piano-H","Pitch-Piano-L","Affect-PD-L","Affect-PD-H",1
50,51,4702,"2Nt4vVUsEA","Affect-16","Affect-EB-L","Affect-EB-H","Color-RY-H","Color-RY-L",1
51,52,26422,"2Nt4vVUsEA","Affect-16","Affect-EB-L","Affect-EB-H","Pitch-Piano-H","Pitch-Piano-L",1
52,53,2160,"2Nt4vVUsEA","Affect-16","Shape-BK4-L","Shape-BK4-H","Affect-EB-H","Affect-EB-L",0
53,54,2745,"2Nt4vVUsEA","Affect-16","Affect-SC-L","Affect-SC-H","Brightness-Diamonds-L","Brightness-Diamonds-H",0
54,55,2381,"2Nt4vVUsEA","Affect-16","Affect-SC-L","Affect-SC-H","Shape-BK4-L","Shape-BK4-H",0
55,56,5178,"2Nt4vVUsEA","Affect-16","Affect-SC-L","Affect-SC-H","Pitch-Piano-L","Pitch-Piano-H",0
56,57,2426,"2Nt4vVUsEA","Affect-16","Size-Triangles-H","Size-Triangles-L","Affect-HS-H","Affect-HS-L",0
57,58,4517,"2Nt4vVUsEA","Affect-16","Pitch-Piano-L","Pitch-Piano-H","Affect-EB-H","Affect-EB-L",1
58,59,5062,"2Nt4vVUsEA","Affect-16","Shape-BK4-L","Shape-BK4-H","Affect-SC-L","Affect-SC-H",0
59,60,3965,"2Nt4vVUsEA","Affect-16","Affect-EB-L","Affect-EB-H","Amp-Piano-H","Amp-Piano-L",1
60,61,4497,"2Nt4vVUsEA","Affect-16","Noise-Piano-H","Noise-Piano-L","Affect-HS-H","Affect-HS-L",1
61,62,3008,"2Nt4vVUsEA","Affect-16","Affect-PD-H","Affect-PD-L","Shape-BK4-L","Shape-BK4-H",1
62,63,6049,"2Nt4vVUsEA","Affect-16","Amp-Piano-L","Amp-Piano-H","Affect-SC-L","Affect-SC-H",0
63,64,4949,"2Nt4vVUsEA","Affect-16","Amp-Piano-H","Amp-Piano-L","Affect-PD-L","Affect-PD-H",0
0,1,4383,"4CwgPWWDdT","Affect-40","Affect-SC-H","Affect-SC-L","Noise-Piano-H","Noise-Piano-L",0
1,2,3953,"4CwgPWWDdT","Affect-40","Affect-HS-L","Affect-HS-H","Speed-SP1-H","Speed-SP1-L",1
2,3,4693,"4CwgPWWDdT","Affect-40","Shape-BK4-L","Shape-BK4-H","Affect-EB-L","Affect-EB-H",0
3,4,4595,"4CwgPWWDdT","Affect-40","Affect-HS-L","Affect-HS-H","Noise-Piano-H","Noise-Piano-L",0
4,5,3697,"4CwgPWWDdT","Affect-40","Affect-PD-H","Affect-PD-L","Pitch-Piano-L","Pitch-Piano-H",1
5,6,3027,"4CwgPWWDdT","Affect-40","Brightness-Circles-H","Brightness-Circles-L","Affect-SC-H","Affect-SC-L",1
6,7,2725,"4CwgPWWDdT","Affect-40","Speed-SP1-L","Speed-SP1-H","Affect-HS-H","Affect-HS-L",1
7,8,2797,"4CwgPWWDdT","Affect-40","Affect-HS-L","Affect-HS-H","Brightness-Circles-H","Brightness-Circles-L",1
8,9,3049,"4CwgPWWDdT","Affect-40","Shape-BK4-L","Shape-BK4-H","Affect-HS-H","Affect-HS-L",0
9,10,2218,"4CwgPWWDdT","Affect-40","Color-YB-L","Color-YB-H","Affect-HS-H","Affect-HS-L",1
10,11,4991,"4CwgPWWDdT","Affect-40","Shape-BK4-H","Shape-BK4-L","Affect-SC-H","Affect-SC-L",0
11,12,8328,"4CwgPWWDdT","Affect-40","Amp-Tone-H","Amp-Tone-L","Affect-SC-H","Affect-SC-L",1
12,13,4043,"4CwgPWWDdT","Affect-40","Affect-SC-H","Affect-SC-L","Pitch-Piano-H","Pitch-Piano-L",1
13,14,2772,"4CwgPWWDdT","Affect-40","Affect-HS-L","Affect-HS-H","Size-Circles-H","Size-Circles-L",1
14,15,2896,"4CwgPWWDdT","Affect-40","Affect-SC-H","Affect-SC-L","Color-YB-H","Color-YB-L",0
15,16,4575,"4CwgPWWDdT","Affect-40","Noise-Piano-H","Noise-Piano-L","Affect-PD-L","Affect-PD-H",0
16,17,4767,"4CwgPWWDdT","Affect-40","Noise-Piano-L","Noise-Piano-H","Affect-EB-L","Affect-EB-H",1
17,18,12869,"4CwgPWWDdT","Affect-40","Affect-SC-H","Affect-SC-L","Brightness-Circles-H","Brightness-Circles-L",1
18,19,2255,"4CwgPWWDdT","Affect-40","Size-Circles-L","Size-Circles-H","Affect-HS-H","Affect-HS-L",1
19,20,4047,"4CwgPWWDdT","Affect-40","Affect-HS-L","Affect-HS-H","Amp-Tone-H","Amp-Tone-L",1
20,21,5412,"4CwgPWWDdT","Affect-40","Affect-EB-L","Affect-EB-H","Pitch-Piano-L","Pitch-Piano-H",1
21,22,3235,"4CwgPWWDdT","Affect-40","Size-Circles-L","Size-Circles-H","Affect-EB-L","Affect-EB-H",0
22,23,5573,"4CwgPWWDdT","Affect-40","Pitch-Piano-H","Pitch-Piano-L","Affect-PD-L","Affect-PD-H",1
23,24,4510,"4CwgPWWDdT","Affect-40","Affect-EB-L","Affect-EB-H","Amp-Tone-L","Amp-Tone-H",0
24,25,3334,"4CwgPWWDdT","Affect-40","Speed-SP1-L","Speed-SP1-H","Affect-EB-L","Affect-EB-H",0
25,26,2031,"4CwgPWWDdT","Affect-40","Affect-SC-H","Affect-SC-L","Size-Circles-H","Size-Circles-L",1
26,27,2314,"4CwgPWWDdT","Affect-40","Affect-EB-L","Affect-EB-H","Speed-SP1-L","Speed-SP1-H",0
27,28,2301,"4CwgPWWDdT","Affect-40","Affect-PD-H","Affect-PD-L","Shape-BK4-L","Shape-BK4-H",1
28,29,4147,"4CwgPWWDdT","Affect-40","Affect-SC-H","Affect-SC-L","Amp-Tone-H","Amp-Tone-L",0
29,30,3385,"4CwgPWWDdT","Affect-40","Size-Circles-H","Size-Circles-L","Affect-SC-H","Affect-SC-L",0
30,31,3070,"4CwgPWWDdT","Affect-40","Brightness-Circles-L","Brightness-Circles-H","Affect-EB-L","Affect-EB-H",0
31,32,1968,"4CwgPWWDdT","Affect-40","Affect-PD-H","Affect-PD-L","Size-Circles-L","Size-Circles-H",1
32,33,1216,"4CwgPWWDdT","Affect-40","Affect-EB-L","Affect-EB-H","Brightness-Circles-L","Brightness-Circles-H",0
33,34,4902,"4CwgPWWDdT","Affect-40","Pitch-Piano-L","Pitch-Piano-H","Affect-EB-L","Affect-EB-H",1
34,35,6095,"4CwgPWWDdT","Affect-40","Noise-Piano-L","Noise-Piano-H","Affect-HS-H","Affect-HS-L",0
35,36,4453,"4CwgPWWDdT","Affect-40","Affect-EB-L","Affect-EB-H","Noise-Piano-L","Noise-Piano-H",1
36,37,4186,"4CwgPWWDdT","Affect-40","Affect-PD-H","Affect-PD-L","Amp-Tone-L","Amp-Tone-H",1
37,38,3946,"4CwgPWWDdT","Affect-40","Brightness-Circles-L","Brightness-Circles-H","Affect-HS-H","Affect-HS-L",1
38,39,1946,"4CwgPWWDdT","Affect-40","Affect-EB-L","Affect-EB-H","Color-YB-L","Color-YB-H",0
39,40,2247,"4CwgPWWDdT","Affect-40","Color-YB-L","Color-YB-H","Affect-EB-L","Affect-EB-H",0
40,41,4445,"4CwgPWWDdT","Affect-40","Pitch-Piano-L","Pitch-Piano-H","Affect-HS-H","Affect-HS-L",1
41,42,2850,"4CwgPWWDdT","Affect-40","Affect-EB-L","Affect-EB-H","Size-Circles-L","Size-Circles-H",0
42,43,3294,"4CwgPWWDdT","Affect-40","Shape-BK4-H","Shape-BK4-L","Affect-PD-L","Affect-PD-H",0
43,44,2282,"4CwgPWWDdT","Affect-40","Affect-EB-L","Affect-EB-H","Shape-BK4-L","Shape-BK4-H",1
44,45,2832,"4CwgPWWDdT","Affect-40","Brightness-Circles-H","Brightness-Circles-L","Affect-PD-L","Affect-PD-H",1
45,46,2112,"4CwgPWWDdT","Affect-40","Speed-SP1-H","Speed-SP1-L","Affect-PD-L","Affect-PD-H",1
46,47,1872,"4CwgPWWDdT","Affect-40","Size-Circles-H","Size-Circles-L","Affect-PD-L","Affect-PD-H",1
47,48,2320,"4CwgPWWDdT","Affect-40","Color-YB-H","Color-YB-L","Affect-SC-H","Affect-SC-L",1
48,49,1982,"4CwgPWWDdT","Affect-40","Affect-PD-H","Affect-PD-L","Brightness-Circles-L","Brightness-Circles-H",1
49,50,5662,"4CwgPWWDdT","Affect-40","Noise-Piano-H","Noise-Piano-L","Affect-SC-H","Affect-SC-L",0
50,51,5219,"4CwgPWWDdT","Affect-40","Amp-Tone-L","Amp-Tone-H","Affect-EB-L","Affect-EB-H",0
51,52,3609,"4CwgPWWDdT","Affect-40","Amp-Tone-H","Amp-Tone-L","Affect-PD-L","Affect-PD-H",1
52,53,2420,"4CwgPWWDdT","Affect-40","Affect-PD-H","Affect-PD-L","Color-YB-L","Color-YB-H",1
53,54,3744,"4CwgPWWDdT","Affect-40","Affect-PD-H","Affect-PD-L","Noise-Piano-L","Noise-Piano-H",0
54,55,4763,"4CwgPWWDdT","Affect-40","Speed-SP1-H","Speed-SP1-L","Affect-SC-H","Affect-SC-L",1
55,56,1931,"4CwgPWWDdT","Affect-40","Affect-SC-H","Affect-SC-L","Speed-SP1-H","Speed-SP1-L",0
56,57,3409,"4CwgPWWDdT","Affect-40","Affect-HS-L","Affect-HS-H","Color-YB-H","Color-YB-L",1
57,58,4903,"4CwgPWWDdT","Affect-40","Color-YB-H","Color-YB-L","Affect-PD-L","Affect-PD-H",1
58,59,4923,"4CwgPWWDdT","Affect-40","Affect-HS-L","Affect-HS-H","Shape-BK4-H","Shape-BK4-L",0
59,60,4046,"4CwgPWWDdT","Affect-40","Pitch-Piano-H","Pitch-Piano-L","Affect-SC-H","Affect-SC-L",1
60,61,4039,"4CwgPWWDdT","Affect-40","Affect-HS-L","Affect-HS-H","Pitch-Piano-H","Pitch-Piano-L",0
61,62,2578,"4CwgPWWDdT","Affect-40","Affect-SC-H","Affect-SC-L","Shape-BK4-H","Shape-BK4-L",0
62,63,4297,"4CwgPWWDdT","Affect-40","Amp-Tone-L","Amp-Tone-H","Affect-HS-H","Affect-HS-L",1
63,64,2037,"4CwgPWWDdT","Affect-40","Affect-PD-H","Affect-PD-L","Speed-SP1-L","Speed-SP1-H",1
0,1,16354,"4Ua6uJkClC","Affect-37","Noise-Pulse-L","Noise-Pulse-H","Affect-SC-H","Affect-SC-L",1
1,2,7898,"4Ua6uJkClC","Affect-37","Affect-HS-H","Affect-HS-L","Noise-Pulse-L","Noise-Pulse-H",1
2,3,5981,"4Ua6uJkClC","Affect-37","Affect-SC-L","Affect-SC-H","Size-Circles-H","Size-Circles-L",1
3,4,8019,"4Ua6uJkClC","Affect-37","Affect-EB-H","Affect-EB-L","Color-RB-H","Color-RB-L",0
4,5,3558,"4Ua6uJkClC","Affect-37","Brightness-Circles-L","Brightness-Circles-H","Affect-SC-H","Affect-SC-L",1
5,6,5290,"4Ua6uJkClC","Affect-37","Size-Circles-H","Size-Circles-L","Affect-EB-H","Affect-EB-L",0
6,7,2529,"4Ua6uJkClC","Affect-37","Size-Circles-L","Size-Circles-H","Affect-SC-H","Affect-SC-L",1
7,8,10531,"4Ua6uJkClC","Affect-37","Affect-SC-L","Affect-SC-H","Amp-Hum-H","Amp-Hum-L",1
8,9,6269,"4Ua6uJkClC","Affect-37","Affect-PD-L","Affect-PD-H","Speed-SP4-L","Speed-SP4-H",0
9,10,5368,"4Ua6uJkClC","Affect-37","Color-RB-L","Color-RB-H","Affect-SC-H","Affect-SC-L",1
10,11,8340,"4Ua6uJkClC","Affect-37","Pitch-Pulse-L","Pitch-Pulse-H","Affect-SC-H","Affect-SC-L",0
11,12,5350,"4Ua6uJkClC","Affect-37","Affect-PD-L","Affect-PD-H","Shape-BK4-L","Shape-BK4-H",1
12,13,3696,"4Ua6uJkClC","Affect-37","Affect-HS-H","Affect-HS-L","Speed-SP4-L","Speed-SP4-H",1
13,14,6444,"4Ua6uJkClC","Affect-37","Affect-EB-H","Affect-EB-L","Amp-Hum-H","Amp-Hum-L",0
14,15,6204,"4Ua6uJkClC","Affect-37","Brightness-Circles-L","Brightness-Circles-H","Affect-PD-L","Affect-PD-H",0
15,16,9068,"4Ua6uJkClC","Affect-37","Affect-PD-L","Affect-PD-H","Amp-Hum-L","Amp-Hum-H",0
16,17,5562,"4Ua6uJkClC","Affect-37","Amp-Hum-H","Amp-Hum-L","Affect-HS-L","Affect-HS-H",1
17,18,20246,"4Ua6uJkClC","Affect-37","Noise-Pulse-H","Noise-Pulse-L","Affect-EB-H","Affect-EB-L",1
18,19,8812,"4Ua6uJkClC","Affect-37","Shape-BK4-H","Shape-BK4-L","Affect-HS-L","Affect-HS-H",0
19,20,9718,"4Ua6uJkClC","Affect-37","Affect-HS-H","Affect-HS-L","Pitch-Pulse-L","Pitch-Pulse-H",0
20,21,9896,"4Ua6uJkClC","Affect-37","Pitch-Pulse-L","Pitch-Pulse-H","Affect-PD-L","Affect-PD-H",0
21,22,7298,"4Ua6uJkClC","Affect-37","Affect-EB-H","Affect-EB-L","Shape-BK4-H","Shape-BK4-L",0
22,23,4836,"4Ua6uJkClC","Affect-37","Affect-SC-L","Affect-SC-H","Brightness-Circles-H","Brightness-Circles-L",1
23,24,3326,"4Ua6uJkClC","Affect-37","Affect-PD-L","Affect-PD-H","Color-RB-L","Color-RB-H",0
24,25,6974,"4Ua6uJkClC","Affect-37","Affect-SC-L","Affect-SC-H","Pitch-Pulse-H","Pitch-Pulse-L",0
25,26,4627,"4Ua6uJkClC","Affect-37","Color-RB-L","Color-RB-H","Affect-PD-L","Affect-PD-H",0
26,27,5863,"4Ua6uJkClC","Affect-37","Pitch-Pulse-H","Pitch-Pulse-L","Affect-EB-H","Affect-EB-L",1
27,28,12891,"4Ua6uJkClC","Affect-37","Amp-Hum-L","Amp-Hum-H","Affect-PD-L","Affect-PD-H",1
28,29,4339,"4Ua6uJkClC","Affect-37","Color-RB-H","Color-RB-L","Affect-EB-H","Affect-EB-L",0
29,30,3304,"4Ua6uJkClC","Affect-37","Shape-BK4-L","Shape-BK4-H","Affect-SC-H","Affect-SC-L",1
30,31,3219,"4Ua6uJkClC","Affect-37","Affect-PD-L","Affect-PD-H","Size-Circles-L","Size-Circles-H",0
31,32,4087,"4Ua6uJkClC","Affect-37","Speed-SP4-H","Speed-SP4-L","Affect-EB-H","Affect-EB-L",0
32,33,3970,"4Ua6uJkClC","Affect-37","Amp-Hum-L","Amp-Hum-H","Affect-SC-H","Affect-SC-L",1
33,34,2838,"4Ua6uJkClC","Affect-37","Affect-HS-H","Affect-HS-L","Shape-BK4-L","Shape-BK4-H",0
34,35,2882,"4Ua6uJkClC","Affect-37","Color-RB-H","Color-RB-L","Affect-HS-L","Affect-HS-H",1
35,36,3628,"4Ua6uJkClC","Affect-37","Affect-HS-H","Affect-HS-L","Amp-Hum-L","Amp-Hum-H",1
36,37,4212,"4Ua6uJkClC","Affect-37","Brightness-Circles-H","Brightness-Circles-L","Affect-EB-H","Affect-EB-L",0
37,38,3153,"4Ua6uJkClC","Affect-37","Shape-BK4-L","Shape-BK4-H","Affect-PD-L","Affect-PD-H",1
38,39,4056,"4Ua6uJkClC","Affect-37","Speed-SP4-L","Speed-SP4-H","Affect-SC-H","Affect-SC-L",1
39,40,2805,"4Ua6uJkClC","Affect-37","Speed-SP4-H","Speed-SP4-L","Affect-HS-L","Affect-HS-H",1
40,41,3667,"4Ua6uJkClC","Affect-37","Affect-SC-L","Affect-SC-H","Color-RB-H","Color-RB-L",1
41,42,5601,"4Ua6uJkClC","Affect-37","Noise-Pulse-H","Noise-Pulse-L","Affect-HS-L","Affect-HS-H",1
42,43,4211,"4Ua6uJkClC","Affect-37","Affect-EB-H","Affect-EB-L","Noise-Pulse-H","Noise-Pulse-L",0
43,44,6173,"4Ua6uJkClC","Affect-37","Affect-EB-H","Affect-EB-L","Pitch-Pulse-H","Pitch-Pulse-L",1
44,45,2274,"4Ua6uJkClC","Affect-37","Affect-SC-L","Affect-SC-H","Shape-BK4-H","Shape-BK4-L",1
45,46,6708,"4Ua6uJkClC","Affect-37","Amp-Hum-H","Amp-Hum-L","Affect-EB-H","Affect-EB-L",0
46,47,4088,"4Ua6uJkClC","Affect-37","Affect-SC-L","Affect-SC-H","Speed-SP4-H","Speed-SP4-L",1
47,48,9157,"4Ua6uJkClC","Affect-37","Affect-PD-L","Affect-PD-H","Noise-Pulse-L","Noise-Pulse-H",0
48,49,6347,"4Ua6uJkClC","Affect-37","Noise-Pulse-L","Noise-Pulse-H","Affect-PD-L","Affect-PD-H",0
49,50,3880,"4Ua6uJkClC","Affect-37","Brightness-Circles-H","Brightness-Circles-L","Affect-HS-L","Affect-HS-H",1
50,51,2909,"4Ua6uJkClC","Affect-37","Speed-SP4-L","Speed-SP4-H","Affect-PD-L","Affect-PD-H",0
51,52,7135,"4Ua6uJkClC","Affect-37","Pitch-Pulse-H","Pitch-Pulse-L","Affect-HS-L","Affect-HS-H",0
52,53,3417,"4Ua6uJkClC","Affect-37","Affect-EB-H","Affect-EB-L","Speed-SP4-H","Speed-SP4-L",0
53,54,4700,"4Ua6uJkClC","Affect-37","Shape-BK4-H","Shape-BK4-L","Affect-EB-H","Affect-EB-L",0
54,55,18759,"4Ua6uJkClC","Affect-37","Affect-HS-H","Affect-HS-L","Brightness-Circles-L","Brightness-Circles-H",1
55,56,5002,"4Ua6uJkClC","Affect-37","Affect-PD-L","Affect-PD-H","Pitch-Pulse-L","Pitch-Pulse-H",1
56,57,4235,"4Ua6uJkClC","Affect-37","Affect-EB-H","Affect-EB-L","Size-Circles-H","Size-Circles-L",0
57,58,3460,"4Ua6uJkClC","Affect-37","Affect-PD-L","Affect-PD-H","Brightness-Circles-L","Brightness-Circles-H",0
58,59,2726,"4Ua6uJkClC","Affect-37","Affect-EB-H","Affect-EB-L","Brightness-Circles-H","Brightness-Circles-L",0
59,60,3174,"4Ua6uJkClC","Affect-37","Affect-HS-H","Affect-HS-L","Size-Circles-L","Size-Circles-H",1
60,61,2950,"4Ua6uJkClC","Affect-37","Size-Circles-H","Size-Circles-L","Affect-HS-L","Affect-HS-H",1
61,62,2691,"4Ua6uJkClC","Affect-37","Affect-HS-H","Affect-HS-L","Color-RB-L","Color-RB-H",1
62,63,3313,"4Ua6uJkClC","Affect-37","Size-Circles-L","Size-Circles-H","Affect-PD-L","Affect-PD-H",0
63,64,4248,"4Ua6uJkClC","Affect-37","Affect-SC-L","Affect-SC-H","Noise-Pulse-H","Noise-Pulse-L",1
0,1,20639,"8AQ6wkyFFv","Affect-42","Amp-Piano-H","Amp-Piano-L","Affect-SC-H","Affect-SC-L",0
1,2,7518,"8AQ6wkyFFv","Affect-42","Amp-Piano-H","Amp-Piano-L","Affect-EB-L","Affect-EB-H",1
2,3,8147,"8AQ6wkyFFv","Affect-42","Affect-HS-L","Affect-HS-H","Shape-BK1-L","Shape-BK1-H",0
3,4,8448,"8AQ6wkyFFv","Affect-42","Affect-PD-L","Affect-PD-H","Amp-Piano-H","Amp-Piano-L",1
4,5,6405,"8AQ6wkyFFv","Affect-42","Affect-HS-L","Affect-HS-H","Color-RB-L","Color-RB-H",0
5,6,15315,"8AQ6wkyFFv","Affect-42","Affect-PD-L","Affect-PD-H","Noise-Piano-H","Noise-Piano-L",0
6,7,7699,"8AQ6wkyFFv","Affect-42","Affect-SC-H","Affect-SC-L","Size-Squares-H","Size-Squares-L",0
7,8,4175,"8AQ6wkyFFv","Affect-42","Brightness-Diamonds-L","Brightness-Diamonds-H","Affect-HS-L","Affect-HS-H",0
8,9,9393,"8AQ6wkyFFv","Affect-42","Amp-Piano-L","Amp-Piano-H","Affect-PD-H","Affect-PD-L",1
9,10,7257,"8AQ6wkyFFv","Affect-42","Speed-SP3-H","Speed-SP3-L","Affect-SC-H","Affect-SC-L",0
10,11,4865,"8AQ6wkyFFv","Affect-42","Affect-EB-H","Affect-EB-L","Shape-BK1-L","Shape-BK1-H",1
11,12,7729,"8AQ6wkyFFv","Affect-42","Affect-HS-L","Affect-HS-H","Size-Squares-L","Size-Squares-H",0
12,13,6197,"8AQ6wkyFFv","Affect-42","Affect-SC-H","Affect-SC-L","Brightness-Diamonds-H","Brightness-Diamonds-L",0
13,14,6412,"8AQ6wkyFFv","Affect-42","Noise-Piano-L","Noise-Piano-H","Affect-PD-H","Affect-PD-L",0
14,15,6668,"8AQ6wkyFFv","Affect-42","Amp-Piano-L","Amp-Piano-H","Affect-HS-L","Affect-HS-H",0
15,16,4273,"8AQ6wkyFFv","Affect-42","Affect-SC-H","Affect-SC-L","Shape-BK1-H","Shape-BK1-L",0
16,17,4484,"8AQ6wkyFFv","Affect-42","Color-RB-H","Color-RB-L","Affect-SC-H","Affect-SC-L",0
17,18,9276,"8AQ6wkyFFv","Affect-42","Affect-HS-L","Affect-HS-H","Pitch-Tone-L","Pitch-Tone-H",0
18,19,5333,"8AQ6wkyFFv","Affect-42","Affect-HS-L","Affect-HS-H","Noise-Piano-L","Noise-Piano-H",1
19,20,3969,"8AQ6wkyFFv","Affect-42","Speed-SP3-H","Speed-SP3-L","Affect-EB-L","Affect-EB-H",1
20,21,8341,"8AQ6wkyFFv","Affect-42","Affect-EB-H","Affect-EB-L","Amp-Piano-L","Amp-Piano-H",1
21,22,6078,"8AQ6wkyFFv","Affect-42","Size-Squares-H","Size-Squares-L","Affect-EB-L","Affect-EB-H",1
22,23,7736,"8AQ6wkyFFv","Affect-42","Shape-BK1-L","Shape-BK1-H","Affect-PD-H","Affect-PD-L",0
23,24,5454,"8AQ6wkyFFv","Affect-42","Affect-SC-H","Affect-SC-L","Amp-Piano-H","Amp-Piano-L",0
24,25,4231,"8AQ6wkyFFv","Affect-42","Affect-EB-H","Affect-EB-L","Color-RB-L","Color-RB-H",1
25,26,5549,"8AQ6wkyFFv","Affect-42","Affect-PD-L","Affect-PD-H","Shape-BK1-H","Shape-BK1-L",0
26,27,3049,"8AQ6wkyFFv","Affect-42","Size-Squares-H","Size-Squares-L","Affect-SC-H","Affect-SC-L",0
27,28,8008,"8AQ6wkyFFv","Affect-42","Pitch-Tone-L","Pitch-Tone-H","Affect-HS-L","Affect-HS-H",0
28,29,2938,"8AQ6wkyFFv","Affect-42","Brightness-Diamonds-H","Brightness-Diamonds-L","Affect-EB-L","Affect-EB-H",1
29,30,3504,"8AQ6wkyFFv","Affect-42","Affect-PD-L","Affect-PD-H","Size-Squares-H","Size-Squares-L",1
30,31,6047,"8AQ6wkyFFv","Affect-42","Affect-HS-L","Affect-HS-H","Amp-Piano-L","Amp-Piano-H",0
31,32,3721,"8AQ6wkyFFv","Affect-42","Affect-EB-H","Affect-EB-L","Speed-SP3-L","Speed-SP3-H",1
32,33,5977,"8AQ6wkyFFv","Affect-42","Pitch-Tone-H","Pitch-Tone-L","Affect-EB-L","Affect-EB-H",1
33,34,5282,"8AQ6wkyFFv","Affect-42","Noise-Piano-H","Noise-Piano-L","Affect-EB-L","Affect-EB-H",0
34,35,6213,"8AQ6wkyFFv","Affect-42","Noise-Piano-H","Noise-Piano-L","Affect-SC-H","Affect-SC-L",0
35,36,5928,"8AQ6wkyFFv","Affect-42","Noise-Piano-L","Noise-Piano-H","Affect-HS-L","Affect-HS-H",1
36,37,5466,"8AQ6wkyFFv","Affect-42","Color-RB-L","Color-RB-H","Affect-PD-H","Affect-PD-L",1
37,38,6862,"8AQ6wkyFFv","Affect-42","Affect-PD-L","Affect-PD-H","Pitch-Tone-H","Pitch-Tone-L",0
38,39,4419,"8AQ6wkyFFv","Affect-42","Affect-SC-H","Affect-SC-L","Color-RB-H","Color-RB-L",0
39,40,3920,"8AQ6wkyFFv","Affect-42","Size-Squares-L","Size-Squares-H","Affect-HS-L","Affect-HS-H",0
40,41,5102,"8AQ6wkyFFv","Affect-42","Affect-EB-H","Affect-EB-L","Size-Squares-L","Size-Squares-H",1
41,42,4282,"8AQ6wkyFFv","Affect-42","Color-RB-H","Color-RB-L","Affect-EB-L","Affect-EB-H",1
42,43,6551,"8AQ6wkyFFv","Affect-42","Affect-SC-H","Affect-SC-L","Noise-Piano-H","Noise-Piano-L",0
43,44,3836,"8AQ6wkyFFv","Affect-42","Affect-EB-H","Affect-EB-L","Brightness-Diamonds-L","Brightness-Diamonds-H",1
44,45,5717,"8AQ6wkyFFv","Affect-42","Color-RB-L","Color-RB-H","Affect-HS-L","Affect-HS-H",0
45,46,3167,"8AQ6wkyFFv","Affect-42","Size-Squares-L","Size-Squares-H","Affect-PD-H","Affect-PD-L",1
46,47,5265,"8AQ6wkyFFv","Affect-42","Affect-EB-H","Affect-EB-L","Pitch-Tone-L","Pitch-Tone-H",1
47,48,10100,"8AQ6wkyFFv","Affect-42","Pitch-Tone-L","Pitch-Tone-H","Affect-PD-H","Affect-PD-L",0
48,49,4104,"8AQ6wkyFFv","Affect-42","Affect-HS-L","Affect-HS-H","Brightness-Diamonds-L","Brightness-Diamonds-H",0
49,50,3443,"8AQ6wkyFFv","Affect-42","Affect-PD-L","Affect-PD-H","Speed-SP3-H","Speed-SP3-L",1
50,51,5448,"8AQ6wkyFFv","Affect-42","Speed-SP3-L","Speed-SP3-H","Affect-HS-L","Affect-HS-H",0
51,52,7207,"8AQ6wkyFFv","Affect-42","Affect-EB-H","Affect-EB-L","Noise-Piano-L","Noise-Piano-H",0
52,53,3391,"8AQ6wkyFFv","Affect-42","Affect-HS-L","Affect-HS-H","Speed-SP3-L","Speed-SP3-H",0
53,54,2009,"8AQ6wkyFFv","Affect-42","Affect-PD-L","Affect-PD-H","Brightness-Diamonds-H","Brightness-Diamonds-L",1
54,55,3372,"8AQ6wkyFFv","Affect-42","Speed-SP3-L","Speed-SP3-H","Affect-PD-H","Affect-PD-L",1
55,56,5095,"8AQ6wkyFFv","Affect-42","Shape-BK1-L","Shape-BK1-H","Affect-HS-L","Affect-HS-H",1
56,57,4606,"8AQ6wkyFFv","Affect-42","Affect-SC-H","Affect-SC-L","Speed-SP3-H","Speed-SP3-L",0
57,58,2315,"8AQ6wkyFFv","Affect-42","Brightness-Diamonds-L","Brightness-Diamonds-H","Affect-PD-H","Affect-PD-L",1
58,59,4608,"8AQ6wkyFFv","Affect-42","Shape-BK1-H","Shape-BK1-L","Affect-SC-H","Affect-SC-L",0
59,60,6118,"8AQ6wkyFFv","Affect-42","Pitch-Tone-H","Pitch-Tone-L","Affect-SC-H","Affect-SC-L",0
60,61,4441,"8AQ6wkyFFv","Affect-42","Shape-BK1-H","Shape-BK1-L","Affect-EB-L","Affect-EB-H",0
61,62,4140,"8AQ6wkyFFv","Affect-42","Brightness-Diamonds-H","Brightness-Diamonds-L","Affect-SC-H","Affect-SC-L",0
62,63,6348,"8AQ6wkyFFv","Affect-42","Affect-SC-H","Affect-SC-L","Pitch-Tone-H","Pitch-Tone-L",0
63,64,2817,"8AQ6wkyFFv","Affect-42","Affect-PD-L","Affect-PD-H","Color-RB-H","Color-RB-L",1
0,1,8110,"8f6C725Vt4","Affect-34","Shape-BK1-L","Shape-BK1-H","Affect-PD-L","Affect-PD-H",1
1,2,6029,"8f6C725Vt4","Affect-34","Pitch-Piano-H","Pitch-Piano-L","Affect-EB-L","Affect-EB-H",0
2,3,4079,"8f6C725Vt4","Affect-34","Affect-SC-H","Affect-SC-L","Speed-SP3-H","Speed-SP3-L",0
3,4,6075,"8f6C725Vt4","Affect-34","Pitch-Piano-L","Pitch-Piano-H","Affect-HS-H","Affect-HS-L",1
4,5,4986,"8f6C725Vt4","Affect-34","Pitch-Piano-L","Pitch-Piano-H","Affect-PD-L","Affect-PD-H",0
5,6,10858,"8f6C725Vt4","Affect-34","Amp-Piano-H","Amp-Piano-L","Affect-EB-L","Affect-EB-H",1
6,7,4924,"8f6C725Vt4","Affect-34","Affect-SC-H","Affect-SC-L","Size-Triangles-H","Size-Triangles-L",0
7,8,4180,"8f6C725Vt4","Affect-34","Affect-PD-L","Affect-PD-H","Brightness-Diamonds-L","Brightness-Diamonds-H",1
8,9,2916,"8f6C725Vt4","Affect-34","Speed-SP3-H","Speed-SP3-L","Affect-SC-H","Affect-SC-L",0
9,10,6060,"8f6C725Vt4","Affect-34","Affect-SC-H","Affect-SC-L","Pitch-Piano-H","Pitch-Piano-L",0
10,11,7052,"8f6C725Vt4","Affect-34","Color-RY-H","Color-RY-L","Affect-EB-L","Affect-EB-H",1
11,12,3879,"8f6C725Vt4","Affect-34","Affect-EB-H","Affect-EB-L","Shape-BK1-L","Shape-BK1-H",0
12,13,2551,"8f6C725Vt4","Affect-34","Color-RY-L","Color-RY-H","Affect-PD-L","Affect-PD-H",1
13,14,9749,"8f6C725Vt4","Affect-34","Affect-HS-L","Affect-HS-H","Noise-Piano-H","Noise-Piano-L",0
14,15,5043,"8f6C725Vt4","Affect-34","Affect-SC-H","Affect-SC-L","Shape-BK1-H","Shape-BK1-L",0
15,16,4787,"8f6C725Vt4","Affect-34","Pitch-Piano-H","Pitch-Piano-L","Affect-SC-H","Affect-SC-L",0
16,17,3924,"8f6C725Vt4","Affect-34","Affect-PD-L","Affect-PD-H","Size-Triangles-L","Size-Triangles-H",0
17,18,6692,"8f6C725Vt4","Affect-34","Amp-Piano-L","Amp-Piano-H","Affect-PD-L","Affect-PD-H",1
18,19,2356,"8f6C725Vt4","Affect-34","Size-Triangles-H","Size-Triangles-L","Affect-SC-H","Affect-SC-L",0
19,20,9988,"8f6C725Vt4","Affect-34","Noise-Piano-L","Noise-Piano-H","Affect-PD-L","Affect-PD-H",1
20,21,3363,"8f6C725Vt4","Affect-34","Affect-PD-L","Affect-PD-H","Color-RY-L","Color-RY-H",1
21,22,2432,"8f6C725Vt4","Affect-34","Brightness-Diamonds-H","Brightness-Diamonds-L","Affect-EB-L","Affect-EB-H",1
22,23,2274,"8f6C725Vt4","Affect-34","Size-Triangles-L","Size-Triangles-H","Affect-HS-H","Affect-HS-L",1
23,24,4660,"8f6C725Vt4","Affect-34","Affect-PD-L","Affect-PD-H","Speed-SP3-L","Speed-SP3-H",1
24,25,5436,"8f6C725Vt4","Affect-34","Affect-PD-L","Affect-PD-H","Noise-Piano-L","Noise-Piano-H",1
25,26,6670,"8f6C725Vt4","Affect-34","Affect-PD-L","Affect-PD-H","Amp-Piano-L","Amp-Piano-H",0
26,27,3083,"8f6C725Vt4","Affect-34","Affect-PD-L","Affect-PD-H","Shape-BK1-L","Shape-BK1-H",1
27,28,3100,"8f6C725Vt4","Affect-34","Brightness-Diamonds-L","Brightness-Diamonds-H","Affect-HS-H","Affect-HS-L",1
28,29,2749,"8f6C725Vt4","Affect-34","Shape-BK1-H","Shape-BK1-L","Affect-SC-H","Affect-SC-L",0
29,30,62604,"8f6C725Vt4","Affect-34","Affect-SC-H","Affect-SC-L","Amp-Piano-H","Amp-Piano-L",1
30,31,4100,"8f6C725Vt4","Affect-34","Affect-EB-H","Affect-EB-L","Speed-SP3-L","Speed-SP3-H",1
31,32,5868,"8f6C725Vt4","Affect-34","Affect-HS-L","Affect-HS-H","Speed-SP3-H","Speed-SP3-L",1
32,33,3491,"8f6C725Vt4","Affect-34","Color-RY-H","Color-RY-L","Affect-SC-H","Affect-SC-L",0
33,34,3997,"8f6C725Vt4","Affect-34","Affect-EB-H","Affect-EB-L","Color-RY-L","Color-RY-H",1
34,35,11595,"8f6C725Vt4","Affect-34","Noise-Piano-H","Noise-Piano-L","Affect-SC-H","Affect-SC-L",1
35,36,9123,"8f6C725Vt4","Affect-34","Affect-SC-H","Affect-SC-L","Noise-Piano-H","Noise-Piano-L",0
36,37,5467,"8f6C725Vt4","Affect-34","Affect-EB-H","Affect-EB-L","Pitch-Piano-L","Pitch-Piano-H",1
37,38,3700,"8f6C725Vt4","Affect-34","Affect-SC-H","Affect-SC-L","Brightness-Diamonds-H","Brightness-Diamonds-L",0
38,39,14342,"8f6C725Vt4","Affect-34","Affect-EB-H","Affect-EB-L","Brightness-Diamonds-L","Brightness-Diamonds-H",0
39,40,12548,"8f6C725Vt4","Affect-34","Brightness-Diamonds-H","Brightness-Diamonds-L","Affect-SC-H","Affect-SC-L",1
40,41,13888,"8f6C725Vt4","Affect-34","Shape-BK1-L","Shape-BK1-H","Affect-HS-H","Affect-HS-L",0
41,42,6253,"8f6C725Vt4","Affect-34","Brightness-Diamonds-L","Brightness-Diamonds-H","Affect-PD-L","Affect-PD-H",1
42,43,3573,"8f6C725Vt4","Affect-34","Color-RY-L","Color-RY-H","Affect-HS-H","Affect-HS-L",1
43,44,4080,"8f6C725Vt4","Affect-34","Speed-SP3-L","Speed-SP3-H","Affect-PD-L","Affect-PD-H",1
44,45,9359,"8f6C725Vt4","Affect-34","Affect-EB-H","Affect-EB-L","Amp-Piano-L","Amp-Piano-H",1
45,46,3629,"8f6C725Vt4","Affect-34","Shape-BK1-H","Shape-BK1-L","Affect-EB-L","Affect-EB-H",0
46,47,3334,"8f6C725Vt4","Affect-34","Affect-HS-L","Affect-HS-H","Color-RY-H","Color-RY-L",1
47,48,4228,"8f6C725Vt4","Affect-34","Speed-SP3-L","Speed-SP3-H","Affect-HS-H","Affect-HS-L",1
48,49,13044,"8f6C725Vt4","Affect-34","Affect-EB-H","Affect-EB-L","Size-Triangles-L","Size-Triangles-H",0
49,50,13800,"8f6C725Vt4","Affect-34","Amp-Piano-L","Amp-Piano-H","Affect-HS-H","Affect-HS-L",1
50,51,3741,"8f6C725Vt4","Affect-34","Affect-SC-H","Affect-SC-L","Color-RY-H","Color-RY-L",0
51,52,5245,"8f6C725Vt4","Affect-34","Affect-HS-L","Affect-HS-H","Brightness-Diamonds-H","Brightness-Diamonds-L",0
52,53,18302,"8f6C725Vt4","Affect-34","Speed-SP3-H","Speed-SP3-L","Affect-EB-L","Affect-EB-H",1
53,54,8653,"8f6C725Vt4","Affect-34","Affect-HS-L","Affect-HS-H","Pitch-Piano-H","Pitch-Piano-L",0
54,55,9365,"8f6C725Vt4","Affect-34","Affect-HS-L","Affect-HS-H","Amp-Piano-H","Amp-Piano-L",1
55,56,4917,"8f6C725Vt4","Affect-34","Affect-HS-L","Affect-HS-H","Size-Triangles-H","Size-Triangles-L",1
56,57,13443,"8f6C725Vt4","Affect-34","Noise-Piano-H","Noise-Piano-L","Affect-EB-L","Affect-EB-H",1
57,58,8200,"8f6C725Vt4","Affect-34","Noise-Piano-L","Noise-Piano-H","Affect-HS-H","Affect-HS-L",0
58,59,8002,"8f6C725Vt4","Affect-34","Affect-PD-L","Affect-PD-H","Pitch-Piano-L","Pitch-Piano-H",0
59,60,14970,"8f6C725Vt4","Affect-34","Size-Triangles-H","Size-Triangles-L","Affect-EB-L","Affect-EB-H",1
60,61,5564,"8f6C725Vt4","Affect-34","Amp-Piano-H","Amp-Piano-L","Affect-SC-H","Affect-SC-L",0
61,62,5013,"8f6C725Vt4","Affect-34","Affect-HS-L","Affect-HS-H","Shape-BK1-H","Shape-BK1-L",0
62,63,26786,"8f6C725Vt4","Affect-34","Affect-EB-H","Affect-EB-L","Noise-Piano-L","Noise-Piano-H",0
63,64,4853,"8f6C725Vt4","Affect-34","Size-Triangles-L","Size-Triangles-H","Affect-PD-L","Affect-PD-H",1
0,1,4511,"8vKjR0WFp8","Affect-9","Speed-SP2-H","Speed-SP2-L","Affect-EB-H","Affect-EB-L",0
1,2,7678,"8vKjR0WFp8","Affect-9","Affect-PD-L","Affect-PD-H","Amp-Hum-L","Amp-Hum-H",1
2,3,5937,"8vKjR0WFp8","Affect-9","Noise-Hum-H","Noise-Hum-L","Affect-EB-H","Affect-EB-L",1
3,4,4026,"8vKjR0WFp8","Affect-9","Affect-SC-H","Affect-SC-L","Color-RY-L","Color-RY-H",1
4,5,5542,"8vKjR0WFp8","Affect-9","Affect-EB-H","Affect-EB-L","Noise-Hum-H","Noise-Hum-L",1
5,6,2783,"8vKjR0WFp8","Affect-9","Color-RY-H","Color-RY-L","Affect-EB-H","Affect-EB-L",1
6,7,3899,"8vKjR0WFp8","Affect-9","Shape-BK3-H","Shape-BK3-L","Affect-EB-H","Affect-EB-L",0
7,8,2738,"8vKjR0WFp8","Affect-9","Affect-EB-H","Affect-EB-L","Size-Diamonds-H","Size-Diamonds-L",0
8,9,3574,"8vKjR0WFp8","Affect-9","Pitch-Piano-L","Pitch-Piano-H","Affect-HS-H","Affect-HS-L",0
9,10,2628,"8vKjR0WFp8","Affect-9","Speed-SP2-L","Speed-SP2-H","Affect-HS-H","Affect-HS-L",1
10,11,3203,"8vKjR0WFp8","Affect-9","Brightness-Squares-H","Brightness-Squares-L","Affect-SC-L","Affect-SC-H",0
11,12,3360,"8vKjR0WFp8","Affect-9","Affect-PD-L","Affect-PD-H","Shape-BK3-L","Shape-BK3-H",1
12,13,3208,"8vKjR0WFp8","Affect-9","Affect-SC-H","Affect-SC-L","Brightness-Squares-L","Brightness-Squares-H",0
13,14,4023,"8vKjR0WFp8","Affect-9","Amp-Hum-L","Amp-Hum-H","Affect-HS-H","Affect-HS-L",1
14,15,4008,"8vKjR0WFp8","Affect-9","Affect-SC-H","Affect-SC-L","Size-Diamonds-L","Size-Diamonds-H",0
15,16,3274,"8vKjR0WFp8","Affect-9","Affect-EB-H","Affect-EB-L","Shape-BK3-H","Shape-BK3-L",1
16,17,2158,"8vKjR0WFp8","Affect-9","Shape-BK3-L","Shape-BK3-H","Affect-PD-L","Affect-PD-H",1
17,18,2540,"8vKjR0WFp8","Affect-9","Affect-PD-L","Affect-PD-H","Size-Diamonds-L","Size-Diamonds-H",0
18,19,2877,"8vKjR0WFp8","Affect-9","Affect-SC-H","Affect-SC-L","Shape-BK3-L","Shape-BK3-H",1
19,20,2364,"8vKjR0WFp8","Affect-9","Affect-PD-L","Affect-PD-H","Color-RY-L","Color-RY-H",1
20,21,3688,"8vKjR0WFp8","Affect-9","Affect-HS-L","Affect-HS-H","Amp-Hum-H","Amp-Hum-L",1
21,22,5124,"8vKjR0WFp8","Affect-9","Pitch-Piano-H","Pitch-Piano-L","Affect-SC-L","Affect-SC-H",1
22,23,3204,"8vKjR0WFp8","Affect-9","Size-Diamonds-H","Size-Diamonds-L","Affect-EB-H","Affect-EB-L",1
23,24,2216,"8vKjR0WFp8","Affect-9","Affect-HS-L","Affect-HS-H","Size-Diamonds-H","Size-Diamonds-L",1
24,25,4001,"8vKjR0WFp8","Affect-9","Affect-EB-H","Affect-EB-L","Amp-Hum-H","Amp-Hum-L",0
25,26,13079,"8vKjR0WFp8","Affect-9","Affect-SC-H","Affect-SC-L","Amp-Hum-L","Amp-Hum-H",0
26,27,5326,"8vKjR0WFp8","Affect-9","Affect-PD-L","Affect-PD-H","Noise-Hum-L","Noise-Hum-H",1
27,28,1868,"8vKjR0WFp8","Affect-9","Affect-PD-L","Affect-PD-H","Brightness-Squares-L","Brightness-Squares-H",0
28,29,4330,"8vKjR0WFp8","Affect-9","Amp-Hum-H","Amp-Hum-L","Affect-EB-H","Affect-EB-L",0
29,30,2924,"8vKjR0WFp8","Affect-9","Affect-EB-H","Affect-EB-L","Speed-SP2-H","Speed-SP2-L",0
30,31,2193,"8vKjR0WFp8","Affect-9","Color-RY-H","Color-RY-L","Affect-SC-L","Affect-SC-H",1
31,32,2115,"8vKjR0WFp8","Affect-9","Affect-EB-H","Affect-EB-L","Brightness-Squares-H","Brightness-Squares-L",0
32,33,1566,"8vKjR0WFp8","Affect-9","Brightness-Squares-L","Brightness-Squares-H","Affect-PD-L","Affect-PD-H",0
33,34,4977,"8vKjR0WFp8","Affect-9","Affect-SC-H","Affect-SC-L","Pitch-Piano-L","Pitch-Piano-H",1
34,35,5277,"8vKjR0WFp8","Affect-9","Noise-Hum-L","Noise-Hum-H","Affect-PD-L","Affect-PD-H",1
35,36,7709,"8vKjR0WFp8","Affect-9","Affect-EB-H","Affect-EB-L","Pitch-Piano-H","Pitch-Piano-L",1
36,37,2216,"8vKjR0WFp8","Affect-9","Affect-HS-L","Affect-HS-H","Speed-SP2-H","Speed-SP2-L",1
37,38,4255,"8vKjR0WFp8","Affect-9","Affect-HS-L","Affect-HS-H","Shape-BK3-H","Shape-BK3-L",0
38,39,2027,"8vKjR0WFp8","Affect-9","Shape-BK3-L","Shape-BK3-H","Affect-HS-H","Affect-HS-L",0
39,40,3297,"8vKjR0WFp8","Affect-9","Affect-HS-L","Affect-HS-H","Noise-Hum-H","Noise-Hum-L",0
40,41,3276,"8vKjR0WFp8","Affect-9","Affect-PD-L","Affect-PD-H","Speed-SP2-L","Speed-SP2-H",0
41,42,1866,"8vKjR0WFp8","Affect-9","Color-RY-L","Color-RY-H","Affect-PD-L","Affect-PD-H",1
42,43,3269,"8vKjR0WFp8","Affect-9","Size-Diamonds-L","Size-Diamonds-H","Affect-HS-H","Affect-HS-L",1
43,44,2660,"8vKjR0WFp8","Affect-9","Size-Diamonds-L","Size-Diamonds-H","Affect-PD-L","Affect-PD-H",0
44,45,1752,"8vKjR0WFp8","Affect-9","Affect-EB-H","Affect-EB-L","Color-RY-H","Color-RY-L",1
45,46,1935,"8vKjR0WFp8","Affect-9","Affect-HS-L","Affect-HS-H","Brightness-Squares-H","Brightness-Squares-L",1
46,47,3872,"8vKjR0WFp8","Affect-9","Pitch-Piano-L","Pitch-Piano-H","Affect-PD-L","Affect-PD-H",1
47,48,2316,"8vKjR0WFp8","Affect-9","Brightness-Squares-L","Brightness-Squares-H","Affect-HS-H","Affect-HS-L",1
48,49,5463,"8vKjR0WFp8","Affect-9","Affect-SC-H","Affect-SC-L","Speed-SP2-L","Speed-SP2-H",1
49,50,6553,"8vKjR0WFp8","Affect-9","Pitch-Piano-H","Pitch-Piano-L","Affect-EB-H","Affect-EB-L",1
50,51,5136,"8vKjR0WFp8","Affect-9","Noise-Hum-L","Noise-Hum-H","Affect-HS-H","Affect-HS-L",0
51,52,2479,"8vKjR0WFp8","Affect-9","Shape-BK3-H","Shape-BK3-L","Affect-SC-L","Affect-SC-H",1
52,53,3611,"8vKjR0WFp8","Affect-9","Affect-PD-L","Affect-PD-H","Pitch-Piano-L","Pitch-Piano-H",1
53,54,3944,"8vKjR0WFp8","Affect-9","Size-Diamonds-H","Size-Diamonds-L","Affect-SC-L","Affect-SC-H",1
54,55,2860,"8vKjR0WFp8","Affect-9","Speed-SP2-L","Speed-SP2-H","Affect-PD-L","Affect-PD-H",0
55,56,4345,"8vKjR0WFp8","Affect-9","Amp-Hum-L","Amp-Hum-H","Affect-PD-L","Affect-PD-H",0
56,57,6206,"8vKjR0WFp8","Affect-9","Affect-SC-H","Affect-SC-L","Noise-Hum-L","Noise-Hum-H",1
57,58,6959,"8vKjR0WFp8","Affect-9","Affect-HS-L","Affect-HS-H","Pitch-Piano-H","Pitch-Piano-L",0
58,59,6618,"8vKjR0WFp8","Affect-9","Noise-Hum-H","Noise-Hum-L","Affect-SC-L","Affect-SC-H",1
59,60,2122,"8vKjR0WFp8","Affect-9","Affect-HS-L","Affect-HS-H","Color-RY-H","Color-RY-L",0
60,61,2091,"8vKjR0WFp8","Affect-9","Brightness-Squares-H","Brightness-Squares-L","Affect-EB-H","Affect-EB-L",1
61,62,6602,"8vKjR0WFp8","Affect-9","Speed-SP2-H","Speed-SP2-L","Affect-SC-L","Affect-SC-H",1
62,63,5854,"8vKjR0WFp8","Affect-9","Amp-Hum-H","Amp-Hum-L","Affect-SC-L","Affect-SC-H",0
63,64,1721,"8vKjR0WFp8","Affect-9","Color-RY-L","Color-RY-H","Affect-HS-H","Affect-HS-L",0
0,1,3535,"aaKbq94lr3","Affect-31","Affect-PD-L","Affect-PD-H","Speed-SP4-L","Speed-SP4-H",0
1,2,13719,"aaKbq94lr3","Affect-31","Pitch-Pulse-H","Pitch-Pulse-L","Affect-SC-L","Affect-SC-H",0
2,3,17098,"aaKbq94lr3","Affect-31","Amp-Hum-L","Amp-Hum-H","Affect-PD-L","Affect-PD-H",1
3,4,7369,"aaKbq94lr3","Affect-31","Affect-EB-L","Affect-EB-H","Shape-BK2-H","Shape-BK2-L",0
4,5,11180,"aaKbq94lr3","Affect-31","Shape-BK2-L","Shape-BK2-H","Affect-EB-H","Affect-EB-L",0
5,6,4822,"aaKbq94lr3","Affect-31","Affect-HS-H","Affect-HS-L","Shape-BK2-H","Shape-BK2-L",1
6,7,7998,"aaKbq94lr3","Affect-31","Speed-SP4-L","Speed-SP4-H","Affect-EB-H","Affect-EB-L",1
7,8,7469,"aaKbq94lr3","Affect-31","Affect-SC-H","Affect-SC-L","Noise-Piano-L","Noise-Piano-H",1
8,9,10266,"aaKbq94lr3","Affect-31","Pitch-Pulse-H","Pitch-Pulse-L","Affect-HS-H","Affect-HS-L",1
9,10,8159,"aaKbq94lr3","Affect-31","Affect-HS-H","Affect-HS-L","Pitch-Pulse-H","Pitch-Pulse-L",0
10,11,5894,"aaKbq94lr3","Affect-31","Speed-SP4-H","Speed-SP4-L","Affect-SC-L","Affect-SC-H",1
11,12,6317,"aaKbq94lr3","Affect-31","Color-RB-H","Color-RB-L","Affect-SC-L","Affect-SC-H",1
12,13,8915,"aaKbq94lr3","Affect-31","Noise-Piano-L","Noise-Piano-H","Affect-PD-L","Affect-PD-H",1
13,14,9376,"aaKbq94lr3","Affect-31","Affect-EB-L","Affect-EB-H","Pitch-Pulse-H","Pitch-Pulse-L",0
14,15,9518,"aaKbq94lr3","Affect-31","Size-Circles-L","Size-Circles-H","Affect-EB-H","Affect-EB-L",0
15,16,12469,"aaKbq94lr3","Affect-31","Pitch-Pulse-L","Pitch-Pulse-H","Affect-EB-H","Affect-EB-L",1
16,17,3540,"aaKbq94lr3","Affect-31","Size-Circles-H","Size-Circles-L","Affect-HS-H","Affect-HS-L",0
17,18,14724,"aaKbq94lr3","Affect-31","Affect-PD-L","Affect-PD-H","Pitch-Pulse-L","Pitch-Pulse-H",0
18,19,6711,"aaKbq94lr3","Affect-31","Affect-PD-L","Affect-PD-H","Amp-Hum-L","Amp-Hum-H",1
19,20,5309,"aaKbq94lr3","Affect-31","Affect-HS-H","Affect-HS-L","Color-RB-H","Color-RB-L",1
20,21,3046,"aaKbq94lr3","Affect-31","Shape-BK2-H","Shape-BK2-L","Affect-HS-H","Affect-HS-L",1
21,22,2863,"aaKbq94lr3","Affect-31","Shape-BK2-L","Shape-BK2-H","Affect-PD-L","Affect-PD-H",1
22,23,5784,"aaKbq94lr3","Affect-31","Size-Circles-H","Size-Circles-L","Affect-SC-L","Affect-SC-H",1
23,24,9104,"aaKbq94lr3","Affect-31","Noise-Piano-H","Noise-Piano-L","Affect-SC-L","Affect-SC-H",1
24,25,5434,"aaKbq94lr3","Affect-31","Color-RB-L","Color-RB-H","Affect-EB-H","Affect-EB-L",0
25,26,11736,"aaKbq94lr3","Affect-31","Affect-EB-L","Affect-EB-H","Brightness-Squares-H","Brightness-Squares-L",1
26,27,3423,"aaKbq94lr3","Affect-31","Affect-SC-H","Affect-SC-L","Speed-SP4-L","Speed-SP4-H",1
27,28,5474,"aaKbq94lr3","Affect-31","Affect-HS-H","Affect-HS-L","Amp-Hum-H","Amp-Hum-L",0
28,29,2557,"aaKbq94lr3","Affect-31","Affect-HS-H","Affect-HS-L","Size-Circles-H","Size-Circles-L",0
29,30,5622,"aaKbq94lr3","Affect-31","Shape-BK2-H","Shape-BK2-L","Affect-SC-L","Affect-SC-H",1
30,31,4740,"aaKbq94lr3","Affect-31","Affect-EB-L","Affect-EB-H","Speed-SP4-H","Speed-SP4-L",1
31,32,9507,"aaKbq94lr3","Affect-31","Affect-SC-H","Affect-SC-L","Color-RB-L","Color-RB-H",1
32,33,10442,"aaKbq94lr3","Affect-31","Affect-EB-L","Affect-EB-H","Noise-Piano-H","Noise-Piano-L",0
33,34,5993,"aaKbq94lr3","Affect-31","Affect-EB-L","Affect-EB-H","Amp-Hum-H","Amp-Hum-L",1
34,35,4734,"aaKbq94lr3","Affect-31","Affect-HS-H","Affect-HS-L","Brightness-Squares-H","Brightness-Squares-L",0
35,36,5693,"aaKbq94lr3","Affect-31","Amp-Hum-H","Amp-Hum-L","Affect-HS-H","Affect-HS-L",0
36,37,4391,"aaKbq94lr3","Affect-31","Brightness-Squares-H","Brightness-Squares-L","Affect-HS-H","Affect-HS-L",0
37,38,5418,"aaKbq94lr3","Affect-31","Pitch-Pulse-L","Pitch-Pulse-H","Affect-PD-L","Affect-PD-H",1
38,39,19227,"aaKbq94lr3","Affect-31","Brightness-Squares-H","Brightness-Squares-L","Affect-SC-L","Affect-SC-H",0
39,40,6058,"aaKbq94lr3","Affect-31","Size-Circles-L","Size-Circles-H","Affect-PD-L","Affect-PD-H",0
40,41,3242,"aaKbq94lr3","Affect-31","Affect-SC-H","Affect-SC-L","Brightness-Squares-L","Brightness-Squares-H",0
41,42,6007,"aaKbq94lr3","Affect-31","Noise-Piano-H","Noise-Piano-L","Affect-HS-H","Affect-HS-L",1
42,43,7873,"aaKbq94lr3","Affect-31","Noise-Piano-L","Noise-Piano-H","Affect-EB-H","Affect-EB-L",0
43,44,5248,"aaKbq94lr3","Affect-31","Affect-HS-H","Affect-HS-L","Noise-Piano-H","Noise-Piano-L",1
44,45,3972,"aaKbq94lr3","Affect-31","Speed-SP4-L","Speed-SP4-H","Affect-PD-L","Affect-PD-H",0
45,46,2973,"aaKbq94lr3","Affect-31","Speed-SP4-H","Speed-SP4-L","Affect-HS-H","Affect-HS-L",0
46,47,3703,"aaKbq94lr3","Affect-31","Color-RB-H","Color-RB-L","Affect-HS-H","Affect-HS-L",1
47,48,4144,"aaKbq94lr3","Affect-31","Affect-SC-H","Affect-SC-L","Amp-Hum-L","Amp-Hum-H",1
48,49,5931,"aaKbq94lr3","Affect-31","Brightness-Squares-L","Brightness-Squares-H","Affect-EB-H","Affect-EB-L",1
49,50,3382,"aaKbq94lr3","Affect-31","Affect-EB-L","Affect-EB-H","Size-Circles-H","Size-Circles-L",1
50,51,5460,"aaKbq94lr3","Affect-31","Color-RB-L","Color-RB-H","Affect-PD-L","Affect-PD-H",1
51,52,2261,"aaKbq94lr3","Affect-31","Affect-PD-L","Affect-PD-H","Color-RB-L","Color-RB-H",1
52,53,2889,"aaKbq94lr3","Affect-31","Affect-PD-L","Affect-PD-H","Shape-BK2-L","Shape-BK2-H",1
53,54,2378,"aaKbq94lr3","Affect-31","Affect-SC-H","Affect-SC-L","Shape-BK2-L","Shape-BK2-H",1
54,55,5708,"aaKbq94lr3","Affect-31","Affect-SC-H","Affect-SC-L","Pitch-Pulse-L","Pitch-Pulse-H",0
55,56,3504,"aaKbq94lr3","Affect-31","Affect-EB-L","Affect-EB-H","Color-RB-H","Color-RB-L",0
56,57,4496,"aaKbq94lr3","Affect-31","Amp-Hum-H","Amp-Hum-L","Affect-SC-L","Affect-SC-H",1
57,58,4696,"aaKbq94lr3","Affect-31","Affect-PD-L","Affect-PD-H","Noise-Piano-L","Noise-Piano-H",1
58,59,4237,"aaKbq94lr3","Affect-31","Affect-PD-L","Affect-PD-H","Size-Circles-L","Size-Circles-H",0
59,60,3159,"aaKbq94lr3","Affect-31","Affect-SC-H","Affect-SC-L","Size-Circles-L","Size-Circles-H",0
60,61,2549,"aaKbq94lr3","Affect-31","Affect-HS-H","Affect-HS-L","Speed-SP4-H","Speed-SP4-L",0
61,62,2365,"aaKbq94lr3","Affect-31","Brightness-Squares-L","Brightness-Squares-H","Affect-PD-L","Affect-PD-H",0
62,63,3142,"aaKbq94lr3","Affect-31","Affect-PD-L","Affect-PD-H","Brightness-Squares-L","Brightness-Squares-H",0
63,64,6054,"aaKbq94lr3","Affect-31","Amp-Hum-L","Amp-Hum-H","Affect-EB-H","Affect-EB-L",1
0,1,533231,"bBUDiBDqLO","Affect-60","Color-YB-H","Color-YB-L","Affect-SC-H","Affect-SC-L",0
1,2,3074,"bBUDiBDqLO","Affect-60","Affect-EB-H","Affect-EB-L","Shape-BK2-L","Shape-BK2-H",0
2,3,5729,"bBUDiBDqLO","Affect-60","Affect-SC-H","Affect-SC-L","Amp-Hum-H","Amp-Hum-L",0
3,4,2894,"bBUDiBDqLO","Affect-60","Affect-HS-L","Affect-HS-H","Color-YB-L","Color-YB-H",0
4,5,3489,"bBUDiBDqLO","Affect-60","Shape-BK2-L","Shape-BK2-H","Affect-PD-H","Affect-PD-L",0
5,6,2305,"bBUDiBDqLO","Affect-60","Shape-BK2-H","Shape-BK2-L","Affect-SC-H","Affect-SC-L",0
6,7,2830,"bBUDiBDqLO","Affect-60","Size-Diamonds-L","Size-Diamonds-H","Affect-PD-H","Affect-PD-L",1
7,8,5241,"bBUDiBDqLO","Affect-60","Affect-PD-L","Affect-PD-H","Noise-Pulse-H","Noise-Pulse-L",1
8,9,3642,"bBUDiBDqLO","Affect-60","Speed-SP1-H","Speed-SP1-L","Affect-SC-H","Affect-SC-L",0
9,10,4188,"bBUDiBDqLO","Affect-60","Affect-EB-H","Affect-EB-L","Speed-SP1-L","Speed-SP1-H",1
10,11,10944,"bBUDiBDqLO","Affect-60","Color-YB-L","Color-YB-H","Affect-HS-L","Affect-HS-H",0
11,12,8816,"bBUDiBDqLO","Affect-60","Affect-EB-H","Affect-EB-L","Noise-Pulse-L","Noise-Pulse-H",0
12,13,6252,"bBUDiBDqLO","Affect-60","Shape-BK2-H","Shape-BK2-L","Affect-EB-L","Affect-EB-H",0
13,14,4507,"bBUDiBDqLO","Affect-60","Affect-SC-H","Affect-SC-L","Color-YB-H","Color-YB-L",1
14,15,2213,"bBUDiBDqLO","Affect-60","Affect-EB-H","Affect-EB-L","Color-YB-L","Color-YB-H",1
15,16,18548,"bBUDiBDqLO","Affect-60","Affect-HS-L","Affect-HS-H","Noise-Pulse-L","Noise-Pulse-H",1
16,17,2995,"bBUDiBDqLO","Affect-60","Speed-SP1-H","Speed-SP1-L","Affect-EB-L","Affect-EB-H",1
17,18,25567,"bBUDiBDqLO","Affect-60","Affect-EB-H","Affect-EB-L","Brightness-Diamonds-L","Brightness-Diamonds-H",1
18,19,4469,"bBUDiBDqLO","Affect-60","Noise-Pulse-L","Noise-Pulse-H","Affect-PD-H","Affect-PD-L",0
19,20,3764,"bBUDiBDqLO","Affect-60","Size-Diamonds-H","Size-Diamonds-L","Affect-EB-L","Affect-EB-H",1
20,21,4488,"bBUDiBDqLO","Affect-60","Affect-PD-L","Affect-PD-H","Speed-SP1-H","Speed-SP1-L",1
21,22,4641,"bBUDiBDqLO","Affect-60","Affect-EB-H","Affect-EB-L","Size-Diamonds-L","Size-Diamonds-H",1
22,23,2264,"bBUDiBDqLO","Affect-60","Affect-PD-L","Affect-PD-H","Size-Diamonds-H","Size-Diamonds-L",1
23,24,3053,"bBUDiBDqLO","Affect-60","Affect-PD-L","Affect-PD-H","Color-YB-H","Color-YB-L",1
24,25,7442,"bBUDiBDqLO","Affect-60","Amp-Hum-L","Amp-Hum-H","Affect-PD-H","Affect-PD-L",1
25,26,3366,"bBUDiBDqLO","Affect-60","Color-YB-L","Color-YB-H","Affect-PD-H","Affect-PD-L",1
26,27,2213,"bBUDiBDqLO","Affect-60","Color-YB-H","Color-YB-L","Affect-EB-L","Affect-EB-H",1
27,28,2958,"bBUDiBDqLO","Affect-60","Affect-HS-L","Affect-HS-H","Brightness-Diamonds-L","Brightness-Diamonds-H",0
28,29,2345,"bBUDiBDqLO","Affect-60","Affect-PD-L","Affect-PD-H","Shape-BK2-H","Shape-BK2-L",0
29,30,2010,"bBUDiBDqLO","Affect-60","Affect-HS-L","Affect-HS-H","Shape-BK2-L","Shape-BK2-H",1
30,31,2850,"bBUDiBDqLO","Affect-60","Affect-SC-H","Affect-SC-L","Shape-BK2-H","Shape-BK2-L",1
31,32,5370,"bBUDiBDqLO","Affect-60","Noise-Pulse-H","Noise-Pulse-L","Affect-EB-L","Affect-EB-H",1
32,33,2934,"bBUDiBDqLO","Affect-60","Affect-SC-H","Affect-SC-L","Size-Diamonds-H","Size-Diamonds-L",0
33,34,1902,"bBUDiBDqLO","Affect-60","Size-Diamonds-L","Size-Diamonds-H","Affect-HS-L","Affect-HS-H",0
34,35,5304,"bBUDiBDqLO","Affect-60","Affect-EB-H","Affect-EB-L","Pitch-Pulse-L","Pitch-Pulse-H",0
35,36,4500,"bBUDiBDqLO","Affect-60","Amp-Hum-H","Amp-Hum-L","Affect-SC-H","Affect-SC-L",0
36,37,3267,"bBUDiBDqLO","Affect-60","Affect-HS-L","Affect-HS-H","Size-Diamonds-L","Size-Diamonds-H",0
37,38,3179,"bBUDiBDqLO","Affect-60","Size-Diamonds-H","Size-Diamonds-L","Affect-SC-H","Affect-SC-L",0
38,39,3572,"bBUDiBDqLO","Affect-60","Affect-HS-L","Affect-HS-H","Amp-Hum-L","Amp-Hum-H",0
39,40,2689,"bBUDiBDqLO","Affect-60","Affect-SC-H","Affect-SC-L","Speed-SP1-H","Speed-SP1-L",0
40,41,12621,"bBUDiBDqLO","Affect-60","Pitch-Pulse-H","Pitch-Pulse-L","Affect-SC-H","Affect-SC-L",0
41,42,4355,"bBUDiBDqLO","Affect-60","Amp-Hum-L","Amp-Hum-H","Affect-HS-L","Affect-HS-H",0
42,43,3829,"bBUDiBDqLO","Affect-60","Pitch-Pulse-L","Pitch-Pulse-H","Affect-HS-L","Affect-HS-H",0
43,44,2596,"bBUDiBDqLO","Affect-60","Affect-HS-L","Affect-HS-H","Speed-SP1-L","Speed-SP1-H",0
44,45,5424,"bBUDiBDqLO","Affect-60","Affect-EB-H","Affect-EB-L","Amp-Hum-L","Amp-Hum-H",1
45,46,4801,"bBUDiBDqLO","Affect-60","Pitch-Pulse-H","Pitch-Pulse-L","Affect-EB-L","Affect-EB-H",0
46,47,4978,"bBUDiBDqLO","Affect-60","Affect-SC-H","Affect-SC-L","Brightness-Diamonds-H","Brightness-Diamonds-L",0
47,48,5118,"bBUDiBDqLO","Affect-60","Affect-PD-L","Affect-PD-H","Amp-Hum-H","Amp-Hum-L",1
48,49,2912,"bBUDiBDqLO","Affect-60","Brightness-Diamonds-L","Brightness-Diamonds-H","Affect-PD-H","Affect-PD-L",0
49,50,4086,"bBUDiBDqLO","Affect-60","Brightness-Diamonds-H","Brightness-Diamonds-L","Affect-EB-L","Affect-EB-H",1
50,51,5086,"bBUDiBDqLO","Affect-60","Pitch-Pulse-L","Pitch-Pulse-H","Affect-PD-H","Affect-PD-L",1
51,52,5924,"bBUDiBDqLO","Affect-60","Speed-SP1-L","Speed-SP1-H","Affect-PD-H","Affect-PD-L",0
52,53,5159,"bBUDiBDqLO","Affect-60","Noise-Pulse-H","Noise-Pulse-L","Affect-SC-H","Affect-SC-L",1
53,54,2618,"bBUDiBDqLO","Affect-60","Brightness-Diamonds-L","Brightness-Diamonds-H","Affect-HS-L","Affect-HS-H",0
54,55,3191,"bBUDiBDqLO","Affect-60","Brightness-Diamonds-H","Brightness-Diamonds-L","Affect-SC-H","Affect-SC-L",0
55,56,4496,"bBUDiBDqLO","Affect-60","Noise-Pulse-L","Noise-Pulse-H","Affect-HS-L","Affect-HS-H",1
56,57,6589,"bBUDiBDqLO","Affect-60","Affect-SC-H","Affect-SC-L","Noise-Pulse-H","Noise-Pulse-L",0
57,58,3581,"bBUDiBDqLO","Affect-60","Affect-HS-L","Affect-HS-H","Pitch-Pulse-L","Pitch-Pulse-H",1
58,59,3318,"bBUDiBDqLO","Affect-60","Speed-SP1-L","Speed-SP1-H","Affect-HS-L","Affect-HS-H",0
59,60,4875,"bBUDiBDqLO","Affect-60","Affect-PD-L","Affect-PD-H","Pitch-Pulse-H","Pitch-Pulse-L",1
60,61,3317,"bBUDiBDqLO","Affect-60","Affect-PD-L","Affect-PD-H","Brightness-Diamonds-H","Brightness-Diamonds-L",1
61,62,2852,"bBUDiBDqLO","Affect-60","Shape-BK2-L","Shape-BK2-H","Affect-HS-L","Affect-HS-H",1
62,63,4993,"bBUDiBDqLO","Affect-60","Amp-Hum-H","Amp-Hum-L","Affect-EB-L","Affect-EB-H",1
63,64,56221,"bBUDiBDqLO","Affect-60","Affect-SC-H","Affect-SC-L","Pitch-Pulse-H","Pitch-Pulse-L",1
0,1,11324,"biHRbLNhoK","Affect-4","Affect-SC-H","Affect-SC-L","Noise-Hum-H","Noise-Hum-L",1
1,2,9332,"biHRbLNhoK","Affect-4","Affect-SC-H","Affect-SC-L","Shape-BK4-H","Shape-BK4-L",0
2,3,11012,"biHRbLNhoK","Affect-4","Shape-BK4-H","Shape-BK4-L","Affect-PD-L","Affect-PD-H",0
3,4,4043,"biHRbLNhoK","Affect-4","Affect-HS-L","Affect-HS-H","Brightness-Circles-H","Brightness-Circles-L",1
4,5,5803,"biHRbLNhoK","Affect-4","Affect-SC-H","Affect-SC-L","Speed-SP4-H","Speed-SP4-L",0
5,6,7252,"biHRbLNhoK","Affect-4","Amp-Piano-H","Amp-Piano-L","Affect-SC-H","Affect-SC-L",0
6,7,14261,"biHRbLNhoK","Affect-4","Color-RG-L","Color-RG-H","Affect-EB-L","Affect-EB-H",0
7,8,4607,"biHRbLNhoK","Affect-4","Brightness-Circles-L","Brightness-Circles-H","Affect-EB-L","Affect-EB-H",0
8,9,8435,"biHRbLNhoK","Affect-4","Pitch-Tone-H","Pitch-Tone-L","Affect-SC-H","Affect-SC-L",0
9,10,8662,"biHRbLNhoK","Affect-4","Speed-SP4-L","Speed-SP4-H","Affect-HS-H","Affect-HS-L",1
10,11,17068,"biHRbLNhoK","Affect-4","Affect-HS-L","Affect-HS-H","Amp-Piano-H","Amp-Piano-L",1
11,12,7255,"biHRbLNhoK","Affect-4","Affect-HS-L","Affect-HS-H","Speed-SP4-H","Speed-SP4-L",1
12,13,12389,"biHRbLNhoK","Affect-4","Affect-SC-H","Affect-SC-L","Size-Circles-H","Size-Circles-L",0
13,14,52821,"biHRbLNhoK","Affect-4","Affect-PD-H","Affect-PD-L","Amp-Piano-L","Amp-Piano-H",0
14,15,5231,"biHRbLNhoK","Affect-4","Affect-EB-L","Affect-EB-H","Speed-SP4-L","Speed-SP4-H",0
15,16,26464,"biHRbLNhoK","Affect-4","Affect-PD-H","Affect-PD-L","Size-Circles-L","Size-Circles-H",0
16,17,7103,"biHRbLNhoK","Affect-4","Affect-SC-H","Affect-SC-L","Color-RG-H","Color-RG-L",0
17,18,12464,"biHRbLNhoK","Affect-4","Noise-Hum-L","Noise-Hum-H","Affect-EB-L","Affect-EB-H",1
18,19,8429,"biHRbLNhoK","Affect-4","Affect-SC-H","Affect-SC-L","Pitch-Tone-H","Pitch-Tone-L",0
19,20,8840,"biHRbLNhoK","Affect-4","Affect-HS-L","Affect-HS-H","Size-Circles-H","Size-Circles-L",1
20,21,24121,"biHRbLNhoK","Affect-4","Size-Circles-H","Size-Circles-L","Affect-PD-L","Affect-PD-H",1
21,22,6069,"biHRbLNhoK","Affect-4","Speed-SP4-H","Speed-SP4-L","Affect-SC-H","Affect-SC-L",0
22,23,17238,"biHRbLNhoK","Affect-4","Pitch-Tone-L","Pitch-Tone-H","Affect-HS-H","Affect-HS-L",1
23,24,11925,"biHRbLNhoK","Affect-4","Color-RG-H","Color-RG-L","Affect-PD-L","Affect-PD-H",0
24,25,12901,"biHRbLNhoK","Affect-4","Affect-EB-L","Affect-EB-H","Noise-Hum-L","Noise-Hum-H",1
25,26,5553,"biHRbLNhoK","Affect-4","Brightness-Circles-H","Brightness-Circles-L","Affect-SC-H","Affect-SC-L",0
26,27,4328,"biHRbLNhoK","Affect-4","Speed-SP4-L","Speed-SP4-H","Affect-EB-L","Affect-EB-H",0
27,28,6258,"biHRbLNhoK","Affect-4","Affect-EB-L","Affect-EB-H","Pitch-Tone-L","Pitch-Tone-H",0
28,29,23020,"biHRbLNhoK","Affect-4","Shape-BK4-L","Shape-BK4-H","Affect-HS-H","Affect-HS-L",0
29,30,14146,"biHRbLNhoK","Affect-4","Affect-HS-L","Affect-HS-H","Color-RG-H","Color-RG-L",0
30,31,6080,"biHRbLNhoK","Affect-4","Affect-PD-H","Affect-PD-L","Brightness-Circles-L","Brightness-Circles-H",1
31,32,6279,"biHRbLNhoK","Affect-4","Size-Circles-L","Size-Circles-H","Affect-EB-L","Affect-EB-H",0
32,33,6968,"biHRbLNhoK","Affect-4","Brightness-Circles-H","Brightness-Circles-L","Affect-PD-L","Affect-PD-H",1
33,34,8780,"biHRbLNhoK","Affect-4","Affect-EB-L","Affect-EB-H","Size-Circles-L","Size-Circles-H",0
34,35,15910,"biHRbLNhoK","Affect-4","Affect-PD-H","Affect-PD-L","Speed-SP4-L","Speed-SP4-H",0
35,36,5093,"biHRbLNhoK","Affect-4","Size-Circles-L","Size-Circles-H","Affect-HS-H","Affect-HS-L",1
36,37,38312,"biHRbLNhoK","Affect-4","Shape-BK4-L","Shape-BK4-H","Affect-EB-L","Affect-EB-H",0
37,38,4623,"biHRbLNhoK","Affect-4","Shape-BK4-H","Shape-BK4-L","Affect-SC-H","Affect-SC-L",0
38,39,6636,"biHRbLNhoK","Affect-4","Affect-EB-L","Affect-EB-H","Shape-BK4-L","Shape-BK4-H",0
39,40,6427,"biHRbLNhoK","Affect-4","Amp-Piano-L","Amp-Piano-H","Affect-HS-H","Affect-HS-L",1
40,41,8854,"biHRbLNhoK","Affect-4","Affect-EB-L","Affect-EB-H","Amp-Piano-L","Amp-Piano-H",0
41,42,8420,"biHRbLNhoK","Affect-4","Affect-HS-L","Affect-HS-H","Noise-Hum-H","Noise-Hum-L",0
42,43,11740,"biHRbLNhoK","Affect-4","Size-Circles-H","Size-Circles-L","Affect-SC-H","Affect-SC-L",1
43,44,9307,"biHRbLNhoK","Affect-4","Affect-PD-H","Affect-PD-L","Pitch-Tone-L","Pitch-Tone-H",0
44,45,10037,"biHRbLNhoK","Affect-4","Affect-SC-H","Affect-SC-L","Amp-Piano-H","Amp-Piano-L",0
45,46,7377,"biHRbLNhoK","Affect-4","Affect-PD-H","Affect-PD-L","Noise-Hum-L","Noise-Hum-H",0
46,47,3935,"biHRbLNhoK","Affect-4","Affect-EB-L","Affect-EB-H","Brightness-Circles-L","Brightness-Circles-H",0
47,48,7995,"biHRbLNhoK","Affect-4","Pitch-Tone-L","Pitch-Tone-H","Affect-EB-L","Affect-EB-H",0
48,49,5105,"biHRbLNhoK","Affect-4","Pitch-Tone-H","Pitch-Tone-L","Affect-PD-L","Affect-PD-H",0
49,50,8896,"biHRbLNhoK","Affect-4","Affect-HS-L","Affect-HS-H","Shape-BK4-H","Shape-BK4-L",1
50,51,25844,"biHRbLNhoK","Affect-4","Affect-HS-L","Affect-HS-H","Pitch-Tone-H","Pitch-Tone-L",1
51,52,5966,"biHRbLNhoK","Affect-4","Color-RG-L","Color-RG-H","Affect-HS-H","Affect-HS-L",0
52,53,3677,"biHRbLNhoK","Affect-4","Brightness-Circles-L","Brightness-Circles-H","Affect-HS-H","Affect-HS-L",1
53,54,5246,"biHRbLNhoK","Affect-4","Noise-Hum-H","Noise-Hum-L","Affect-PD-L","Affect-PD-H",0
54,55,9939,"biHRbLNhoK","Affect-4","Affect-SC-H","Affect-SC-L","Brightness-Circles-H","Brightness-Circles-L",0
55,56,13764,"biHRbLNhoK","Affect-4","Noise-Hum-L","Noise-Hum-H","Affect-HS-H","Affect-HS-L",0
56,57,12713,"biHRbLNhoK","Affect-4","Noise-Hum-H","Noise-Hum-L","Affect-SC-H","Affect-SC-L",0
57,58,7223,"biHRbLNhoK","Affect-4","Speed-SP4-H","Speed-SP4-L","Affect-PD-L","Affect-PD-H",0
58,59,13000,"biHRbLNhoK","Affect-4","Amp-Piano-H","Amp-Piano-L","Affect-PD-L","Affect-PD-H",0
59,60,37411,"biHRbLNhoK","Affect-4","Affect-PD-H","Affect-PD-L","Shape-BK4-L","Shape-BK4-H",0
60,61,3707,"biHRbLNhoK","Affect-4","Color-RG-H","Color-RG-L","Affect-SC-H","Affect-SC-L",0
61,62,3247,"biHRbLNhoK","Affect-4","Affect-PD-H","Affect-PD-L","Color-RG-L","Color-RG-H",0
62,63,6871,"biHRbLNhoK","Affect-4","Amp-Piano-L","Amp-Piano-H","Affect-EB-L","Affect-EB-H",0
63,64,11721,"biHRbLNhoK","Affect-4","Affect-EB-L","Affect-EB-H","Color-RG-L","Color-RG-H",1
0,1,5268,"bYdtAAp8JS","Affect-32","Affect-HS-L","Affect-HS-H","Pitch-Hum-H","Pitch-Hum-L",1
1,2,5346,"bYdtAAp8JS","Affect-32","Noise-Piano-H","Noise-Piano-L","Affect-SC-H","Affect-SC-L",0
2,3,4205,"bYdtAAp8JS","Affect-32","Shape-BK2-H","Shape-BK2-L","Affect-SC-H","Affect-SC-L",0
3,4,20450,"bYdtAAp8JS","Affect-32","Pitch-Hum-H","Pitch-Hum-L","Affect-SC-H","Affect-SC-L",1
4,5,3514,"bYdtAAp8JS","Affect-32","Affect-EB-L","Affect-EB-H","Speed-SP4-L","Speed-SP4-H",0
5,6,11794,"bYdtAAp8JS","Affect-32","Affect-HS-L","Affect-HS-H","Noise-Piano-H","Noise-Piano-L",0
6,7,3099,"bYdtAAp8JS","Affect-32","Affect-EB-L","Affect-EB-H","Shape-BK2-L","Shape-BK2-H",1
7,8,2517,"bYdtAAp8JS","Affect-32","Affect-PD-H","Affect-PD-L","Shape-BK2-L","Shape-BK2-H",1
8,9,3300,"bYdtAAp8JS","Affect-32","Affect-HS-L","Affect-HS-H","Color-RG-H","Color-RG-L",1
9,10,2725,"bYdtAAp8JS","Affect-32","Brightness-Squares-L","Brightness-Squares-H","Affect-EB-L","Affect-EB-H",1
10,11,1118,"bYdtAAp8JS","Affect-32","Affect-HS-L","Affect-HS-H","Brightness-Squares-H","Brightness-Squares-L",0
11,12,4834,"bYdtAAp8JS","Affect-32","Pitch-Hum-H","Pitch-Hum-L","Affect-PD-L","Affect-PD-H",1
12,13,21634,"bYdtAAp8JS","Affect-32","Noise-Piano-L","Noise-Piano-H","Affect-HS-H","Affect-HS-L",1
13,14,2718,"bYdtAAp8JS","Affect-32","Brightness-Squares-H","Brightness-Squares-L","Affect-PD-L","Affect-PD-H",0
14,15,1646,"bYdtAAp8JS","Affect-32","Color-RG-H","Color-RG-L","Affect-SC-H","Affect-SC-L",1
15,16,6410,"bYdtAAp8JS","Affect-32","Affect-PD-H","Affect-PD-L","Amp-Hum-L","Amp-Hum-H",0
16,17,3494,"bYdtAAp8JS","Affect-32","Speed-SP4-H","Speed-SP4-L","Affect-PD-L","Affect-PD-H",1
17,18,5151,"bYdtAAp8JS","Affect-32","Affect-PD-H","Affect-PD-L","Noise-Piano-L","Noise-Piano-H",1
18,19,3374,"bYdtAAp8JS","Affect-32","Size-Triangles-L","Size-Triangles-H","Affect-HS-H","Affect-HS-L",1
19,20,2244,"bYdtAAp8JS","Affect-32","Color-RG-L","Color-RG-H","Affect-EB-L","Affect-EB-H",1
20,21,3461,"bYdtAAp8JS","Affect-32","Affect-PD-H","Affect-PD-L","Speed-SP4-L","Speed-SP4-H",1
21,22,2438,"bYdtAAp8JS","Affect-32","Shape-BK2-L","Shape-BK2-H","Affect-EB-L","Affect-EB-H",1
22,23,4133,"bYdtAAp8JS","Affect-32","Shape-BK2-H","Shape-BK2-L","Affect-PD-L","Affect-PD-H",0
23,24,2804,"bYdtAAp8JS","Affect-32","Size-Triangles-H","Size-Triangles-L","Affect-PD-L","Affect-PD-H",0
24,25,2822,"bYdtAAp8JS","Affect-32","Speed-SP4-L","Speed-SP4-H","Affect-HS-H","Affect-HS-L",1
25,26,4189,"bYdtAAp8JS","Affect-32","Affect-EB-L","Affect-EB-H","Size-Triangles-L","Size-Triangles-H",0
26,27,2128,"bYdtAAp8JS","Affect-32","Affect-HS-L","Affect-HS-H","Speed-SP4-H","Speed-SP4-L",1
27,28,3635,"bYdtAAp8JS","Affect-32","Affect-SC-H","Affect-SC-L","Brightness-Squares-H","Brightness-Squares-L",0
28,29,4110,"bYdtAAp8JS","Affect-32","Brightness-Squares-L","Brightness-Squares-H","Affect-HS-H","Affect-HS-L",1
29,30,2750,"bYdtAAp8JS","Affect-32","Size-Triangles-H","Size-Triangles-L","Affect-SC-H","Affect-SC-L",0
30,31,2598,"bYdtAAp8JS","Affect-32","Affect-PD-H","Affect-PD-L","Brightness-Squares-L","Brightness-Squares-H",0
31,32,5594,"bYdtAAp8JS","Affect-32","Affect-SC-H","Affect-SC-L","Pitch-Hum-H","Pitch-Hum-L",1
32,33,2460,"bYdtAAp8JS","Affect-32","Color-RG-L","Color-RG-H","Affect-HS-H","Affect-HS-L",1
33,34,1670,"bYdtAAp8JS","Affect-32","Brightness-Squares-H","Brightness-Squares-L","Affect-SC-H","Affect-SC-L",1
34,35,3680,"bYdtAAp8JS","Affect-32","Affect-SC-H","Affect-SC-L","Color-RG-H","Color-RG-L",1
35,36,1254,"bYdtAAp8JS","Affect-32","Affect-PD-H","Affect-PD-L","Color-RG-L","Color-RG-H",0
36,37,1517,"bYdtAAp8JS","Affect-32","Affect-EB-L","Affect-EB-H","Color-RG-L","Color-RG-H",1
37,38,1861,"bYdtAAp8JS","Affect-32","Affect-HS-L","Affect-HS-H","Shape-BK2-H","Shape-BK2-L",1
38,39,5028,"bYdtAAp8JS","Affect-32","Pitch-Hum-L","Pitch-Hum-H","Affect-HS-H","Affect-HS-L",1
39,40,10815,"bYdtAAp8JS","Affect-32","Noise-Piano-H","Noise-Piano-L","Affect-PD-L","Affect-PD-H",1
40,41,3437,"bYdtAAp8JS","Affect-32","Size-Triangles-L","Size-Triangles-H","Affect-EB-L","Affect-EB-H",0
41,42,4293,"bYdtAAp8JS","Affect-32","Affect-EB-L","Affect-EB-H","Brightness-Squares-L","Brightness-Squares-H",1
42,43,5939,"bYdtAAp8JS","Affect-32","Affect-EB-L","Affect-EB-H","Amp-Hum-L","Amp-Hum-H",1
43,44,5600,"bYdtAAp8JS","Affect-32","Amp-Hum-L","Amp-Hum-H","Affect-HS-H","Affect-HS-L",0
44,45,3046,"bYdtAAp8JS","Affect-32","Affect-PD-H","Affect-PD-L","Size-Triangles-L","Size-Triangles-H",1
45,46,5307,"bYdtAAp8JS","Affect-32","Affect-SC-H","Affect-SC-L","Noise-Piano-H","Noise-Piano-L",0
46,47,4907,"bYdtAAp8JS","Affect-32","Amp-Hum-H","Amp-Hum-L","Affect-SC-H","Affect-SC-L",0
47,48,3493,"bYdtAAp8JS","Affect-32","Color-RG-H","Color-RG-L","Affect-PD-L","Affect-PD-H",1
48,49,1510,"bYdtAAp8JS","Affect-32","Affect-HS-L","Affect-HS-H","Size-Triangles-H","Size-Triangles-L",1
49,50,2897,"bYdtAAp8JS","Affect-32","Affect-SC-H","Affect-SC-L","Size-Triangles-H","Size-Triangles-L",1
50,51,4186,"bYdtAAp8JS","Affect-32","Amp-Hum-L","Amp-Hum-H","Affect-EB-L","Affect-EB-H",1
51,52,3611,"bYdtAAp8JS","Affect-32","Speed-SP4-H","Speed-SP4-L","Affect-SC-H","Affect-SC-L",0
52,53,2910,"bYdtAAp8JS","Affect-32","Affect-SC-H","Affect-SC-L","Speed-SP4-H","Speed-SP4-L",0
53,54,4744,"bYdtAAp8JS","Affect-32","Affect-HS-L","Affect-HS-H","Amp-Hum-H","Amp-Hum-L",0
54,55,5530,"bYdtAAp8JS","Affect-32","Affect-PD-H","Affect-PD-L","Pitch-Hum-L","Pitch-Hum-H",1
55,56,8515,"bYdtAAp8JS","Affect-32","Noise-Piano-L","Noise-Piano-H","Affect-EB-L","Affect-EB-H",0
56,57,5689,"bYdtAAp8JS","Affect-32","Affect-EB-L","Affect-EB-H","Pitch-Hum-L","Pitch-Hum-H",1
57,58,1965,"bYdtAAp8JS","Affect-32","Shape-BK2-L","Shape-BK2-H","Affect-HS-H","Affect-HS-L",1
58,59,5623,"bYdtAAp8JS","Affect-32","Amp-Hum-H","Amp-Hum-L","Affect-PD-L","Affect-PD-H",1
59,60,21043,"bYdtAAp8JS","Affect-32","Pitch-Hum-L","Pitch-Hum-H","Affect-EB-L","Affect-EB-H",0
60,61,2966,"bYdtAAp8JS","Affect-32","Affect-SC-H","Affect-SC-L","Shape-BK2-H","Shape-BK2-L",1
61,62,10170,"bYdtAAp8JS","Affect-32","Affect-EB-L","Affect-EB-H","Noise-Piano-L","Noise-Piano-H",0
62,63,18715,"bYdtAAp8JS","Affect-32","Affect-SC-H","Affect-SC-L","Amp-Hum-H","Amp-Hum-L",1
63,64,2438,"bYdtAAp8JS","Affect-32","Speed-SP4-L","Speed-SP4-H","Affect-EB-L","Affect-EB-H",0
0,1,8132,"c6F8FvdbbK","Affect-43","Size-Squares-H","Size-Squares-L","Affect-EB-H","Affect-EB-L",1
1,2,7433,"c6F8FvdbbK","Affect-43","Pitch-Piano-H","Pitch-Piano-L","Affect-EB-H","Affect-EB-L",1
2,3,6872,"c6F8FvdbbK","Affect-43","Affect-HS-H","Affect-HS-L","Pitch-Piano-L","Pitch-Piano-H",0
3,4,2971,"c6F8FvdbbK","Affect-43","Affect-EB-H","Affect-EB-L","Brightness-Diamonds-H","Brightness-Diamonds-L",1
4,5,2758,"c6F8FvdbbK","Affect-43","Affect-HS-H","Affect-HS-L","Shape-BK2-L","Shape-BK2-H",1
5,6,4887,"c6F8FvdbbK","Affect-43","Speed-SP3-H","Speed-SP3-L","Affect-HS-L","Affect-HS-H",1
6,7,3481,"c6F8FvdbbK","Affect-43","Affect-SC-L","Affect-SC-H","Color-RB-H","Color-RB-L",1
7,8,2765,"c6F8FvdbbK","Affect-43","Color-RB-H","Color-RB-L","Affect-HS-L","Affect-HS-H",1
8,9,2952,"c6F8FvdbbK","Affect-43","Color-RB-L","Color-RB-H","Affect-PD-L","Affect-PD-H",1
9,10,5529,"c6F8FvdbbK","Affect-43","Pitch-Piano-H","Pitch-Piano-L","Affect-HS-L","Affect-HS-H",0
10,11,3784,"c6F8FvdbbK","Affect-43","Speed-SP3-H","Speed-SP3-L","Affect-EB-H","Affect-EB-L",0
11,12,3423,"c6F8FvdbbK","Affect-43","Size-Squares-L","Size-Squares-H","Affect-PD-L","Affect-PD-H",0
12,13,4038,"c6F8FvdbbK","Affect-43","Shape-BK2-L","Shape-BK2-H","Affect-SC-H","Affect-SC-L",0
13,14,6059,"c6F8FvdbbK","Affect-43","Amp-Pulse-L","Amp-Pulse-H","Affect-SC-H","Affect-SC-L",1
14,15,2240,"c6F8FvdbbK","Affect-43","Brightness-Diamonds-L","Brightness-Diamonds-H","Affect-PD-L","Affect-PD-H",1
15,16,3451,"c6F8FvdbbK","Affect-43","Affect-EB-H","Affect-EB-L","Size-Squares-H","Size-Squares-L",1
16,17,5286,"c6F8FvdbbK","Affect-43","Noise-Piano-L","Noise-Piano-H","Affect-PD-L","Affect-PD-H",1
17,18,2678,"c6F8FvdbbK","Affect-43","Affect-PD-L","Affect-PD-H","Size-Squares-L","Size-Squares-H",1
18,19,2336,"c6F8FvdbbK","Affect-43","Color-RB-L","Color-RB-H","Affect-SC-H","Affect-SC-L",1
19,20,3242,"c6F8FvdbbK","Affect-43","Brightness-Diamonds-H","Brightness-Diamonds-L","Affect-EB-H","Affect-EB-L",1
20,21,6148,"c6F8FvdbbK","Affect-43","Affect-EB-H","Affect-EB-L","Noise-Piano-H","Noise-Piano-L",1
21,22,3201,"c6F8FvdbbK","Affect-43","Affect-SC-L","Affect-SC-H","Brightness-Diamonds-H","Brightness-Diamonds-L",0
22,23,3849,"c6F8FvdbbK","Affect-43","Noise-Piano-L","Noise-Piano-H","Affect-SC-H","Affect-SC-L",1
23,24,1549,"c6F8FvdbbK","Affect-43","Affect-PD-L","Affect-PD-H","Brightness-Diamonds-L","Brightness-Diamonds-H",1
24,25,4802,"c6F8FvdbbK","Affect-43","Affect-SC-L","Affect-SC-H","Noise-Piano-H","Noise-Piano-L",1
25,26,5821,"c6F8FvdbbK","Affect-43","Affect-PD-L","Affect-PD-H","Amp-Pulse-L","Amp-Pulse-H",1
26,27,3031,"c6F8FvdbbK","Affect-43","Speed-SP3-L","Speed-SP3-H","Affect-SC-H","Affect-SC-L",1
27,28,5140,"c6F8FvdbbK","Affect-43","Noise-Piano-H","Noise-Piano-L","Affect-HS-L","Affect-HS-H",0
28,29,5686,"c6F8FvdbbK","Affect-43","Affect-PD-L","Affect-PD-H","Noise-Piano-L","Noise-Piano-H",1
29,30,1719,"c6F8FvdbbK","Affect-43","Affect-EB-H","Affect-EB-L","Color-RB-H","Color-RB-L",1
30,31,1502,"c6F8FvdbbK","Affect-43","Affect-HS-H","Affect-HS-L","Size-Squares-L","Size-Squares-H",1
31,32,8158,"c6F8FvdbbK","Affect-43","Noise-Piano-H","Noise-Piano-L","Affect-EB-H","Affect-EB-L",1
32,33,5105,"c6F8FvdbbK","Affect-43","Amp-Pulse-H","Amp-Pulse-L","Affect-HS-L","Affect-HS-H",0
33,34,4084,"c6F8FvdbbK","Affect-43","Affect-HS-H","Affect-HS-L","Amp-Pulse-L","Amp-Pulse-H",0
34,35,1932,"c6F8FvdbbK","Affect-43","Affect-SC-L","Affect-SC-H","Size-Squares-H","Size-Squares-L",1
35,36,3350,"c6F8FvdbbK","Affect-43","Affect-PD-L","Affect-PD-H","Color-RB-L","Color-RB-H",1
36,37,3133,"c6F8FvdbbK","Affect-43","Affect-EB-H","Affect-EB-L","Speed-SP3-H","Speed-SP3-L",0
37,38,3966,"c6F8FvdbbK","Affect-43","Affect-PD-L","Affect-PD-H","Speed-SP3-L","Speed-SP3-H",0
38,39,3242,"c6F8FvdbbK","Affect-43","Size-Squares-L","Size-Squares-H","Affect-SC-H","Affect-SC-L",1
39,40,6178,"c6F8FvdbbK","Affect-43","Amp-Pulse-L","Amp-Pulse-H","Affect-PD-L","Affect-PD-H",1
40,41,5596,"c6F8FvdbbK","Affect-43","Affect-SC-L","Affect-SC-H","Amp-Pulse-H","Amp-Pulse-L",1
41,42,2722,"c6F8FvdbbK","Affect-43","Brightness-Diamonds-H","Brightness-Diamonds-L","Affect-HS-L","Affect-HS-H",1
42,43,4248,"c6F8FvdbbK","Affect-43","Shape-BK2-L","Shape-BK2-H","Affect-PD-L","Affect-PD-H",0
43,44,2177,"c6F8FvdbbK","Affect-43","Size-Squares-H","Size-Squares-L","Affect-HS-L","Affect-HS-H",1
44,45,4407,"c6F8FvdbbK","Affect-43","Brightness-Diamonds-L","Brightness-Diamonds-H","Affect-SC-H","Affect-SC-L",1
45,46,6727,"c6F8FvdbbK","Affect-43","Affect-SC-L","Affect-SC-H","Pitch-Piano-H","Pitch-Piano-L",1
46,47,2087,"c6F8FvdbbK","Affect-43","Affect-SC-L","Affect-SC-H","Speed-SP3-H","Speed-SP3-L",1
47,48,2268,"c6F8FvdbbK","Affect-43","Affect-SC-L","Affect-SC-H","Shape-BK2-H","Shape-BK2-L",0
48,49,2641,"c6F8FvdbbK","Affect-43","Affect-HS-H","Affect-HS-L","Speed-SP3-L","Speed-SP3-H",1
49,50,2898,"c6F8FvdbbK","Affect-43","Shape-BK2-H","Shape-BK2-L","Affect-EB-H","Affect-EB-L",1
50,51,5394,"c6F8FvdbbK","Affect-43","Affect-EB-H","Affect-EB-L","Amp-Pulse-H","Amp-Pulse-L",1
51,52,4211,"c6F8FvdbbK","Affect-43","Affect-HS-H","Affect-HS-L","Noise-Piano-L","Noise-Piano-H",0
52,53,4147,"c6F8FvdbbK","Affect-43","Shape-BK2-H","Shape-BK2-L","Affect-HS-L","Affect-HS-H",0
53,54,4155,"c6F8FvdbbK","Affect-43","Affect-PD-L","Affect-PD-H","Pitch-Piano-L","Pitch-Piano-H",1
54,55,2787,"c6F8FvdbbK","Affect-43","Speed-SP3-L","Speed-SP3-H","Affect-PD-L","Affect-PD-H",0
55,56,1714,"c6F8FvdbbK","Affect-43","Color-RB-H","Color-RB-L","Affect-EB-H","Affect-EB-L",1
56,57,1490,"c6F8FvdbbK","Affect-43","Affect-PD-L","Affect-PD-H","Shape-BK2-L","Shape-BK2-H",1
57,58,4650,"c6F8FvdbbK","Affect-43","Pitch-Piano-L","Pitch-Piano-H","Affect-PD-L","Affect-PD-H",1
58,59,2604,"c6F8FvdbbK","Affect-43","Affect-EB-H","Affect-EB-L","Shape-BK2-H","Shape-BK2-L",0
59,60,4696,"c6F8FvdbbK","Affect-43","Affect-EB-H","Affect-EB-L","Pitch-Piano-H","Pitch-Piano-L",0
60,61,3188,"c6F8FvdbbK","Affect-43","Affect-HS-H","Affect-HS-L","Color-RB-L","Color-RB-H",0
61,62,4139,"c6F8FvdbbK","Affect-43","Affect-HS-H","Affect-HS-L","Brightness-Diamonds-L","Brightness-Diamonds-H",0
62,63,4948,"c6F8FvdbbK","Affect-43","Amp-Pulse-H","Amp-Pulse-L","Affect-EB-H","Affect-EB-L",0
63,64,3533,"c6F8FvdbbK","Affect-43","Pitch-Piano-L","Pitch-Piano-H","Affect-SC-H","Affect-SC-L",1
0,1,5310,"Cs0yfoxGT3","Affect-49","Affect-EB-H","Affect-EB-L","Noise-Piano-H","Noise-Piano-L",0
1,2,5068,"Cs0yfoxGT3","Affect-49","Affect-SC-H","Affect-SC-L","Brightness-Circles-L","Brightness-Circles-H",0
2,3,4167,"Cs0yfoxGT3","Affect-49","Color-RB-L","Color-RB-H","Affect-PD-H","Affect-PD-L",0
3,4,3548,"Cs0yfoxGT3","Affect-49","Affect-PD-L","Affect-PD-H","Brightness-Circles-H","Brightness-Circles-L",1
4,5,4118,"Cs0yfoxGT3","Affect-49","Speed-SP3-H","Speed-SP3-L","Affect-SC-L","Affect-SC-H",1
5,6,5198,"Cs0yfoxGT3","Affect-49","Speed-SP3-L","Speed-SP3-H","Affect-PD-H","Affect-PD-L",0
6,7,11596,"Cs0yfoxGT3","Affect-49","Affect-HS-L","Affect-HS-H","Noise-Piano-L","Noise-Piano-H",1
7,8,12536,"Cs0yfoxGT3","Affect-49","Affect-HS-L","Affect-HS-H","Pitch-Hum-L","Pitch-Hum-H",0
8,9,7163,"Cs0yfoxGT3","Affect-49","Shape-BK3-L","Shape-BK3-H","Affect-HS-L","Affect-HS-H",1
9,10,6146,"Cs0yfoxGT3","Affect-49","Pitch-Hum-L","Pitch-Hum-H","Affect-PD-H","Affect-PD-L",1
10,11,5872,"Cs0yfoxGT3","Affect-49","Affect-EB-H","Affect-EB-L","Size-Diamonds-H","Size-Diamonds-L",0
11,12,3917,"Cs0yfoxGT3","Affect-49","Affect-HS-L","Affect-HS-H","Speed-SP3-L","Speed-SP3-H",0
12,13,3243,"Cs0yfoxGT3","Affect-49","Affect-PD-L","Affect-PD-H","Size-Diamonds-H","Size-Diamonds-L",1
13,14,5089,"Cs0yfoxGT3","Affect-49","Amp-Hum-L","Amp-Hum-H","Affect-HS-L","Affect-HS-H",0
14,15,3026,"Cs0yfoxGT3","Affect-49","Brightness-Circles-L","Brightness-Circles-H","Affect-PD-H","Affect-PD-L",1
15,16,3410,"Cs0yfoxGT3","Affect-49","Speed-SP3-H","Speed-SP3-L","Affect-EB-H","Affect-EB-L",0
16,17,3166,"Cs0yfoxGT3","Affect-49","Affect-SC-H","Affect-SC-L","Shape-BK3-L","Shape-BK3-H",1
17,18,3886,"Cs0yfoxGT3","Affect-49","Brightness-Circles-L","Brightness-Circles-H","Affect-HS-L","Affect-HS-H",0
18,19,3953,"Cs0yfoxGT3","Affect-49","Shape-BK3-H","Shape-BK3-L","Affect-SC-L","Affect-SC-H",1
19,20,6217,"Cs0yfoxGT3","Affect-49","Affect-PD-L","Affect-PD-H","Amp-Hum-H","Amp-Hum-L",1
20,21,9277,"Cs0yfoxGT3","Affect-49","Affect-PD-L","Affect-PD-H","Pitch-Hum-H","Pitch-Hum-L",1
21,22,2525,"Cs0yfoxGT3","Affect-49","Affect-HS-L","Affect-HS-H","Brightness-Circles-L","Brightness-Circles-H",0
22,23,10262,"Cs0yfoxGT3","Affect-49","Pitch-Hum-H","Pitch-Hum-L","Affect-EB-H","Affect-EB-L",0
23,24,3651,"Cs0yfoxGT3","Affect-49","Affect-EB-H","Affect-EB-L","Shape-BK3-H","Shape-BK3-L",0
24,25,4625,"Cs0yfoxGT3","Affect-49","Noise-Piano-H","Noise-Piano-L","Affect-EB-H","Affect-EB-L",1
25,26,4704,"Cs0yfoxGT3","Affect-49","Color-RB-L","Color-RB-H","Affect-HS-L","Affect-HS-H",0
26,27,4888,"Cs0yfoxGT3","Affect-49","Amp-Hum-H","Amp-Hum-L","Affect-SC-L","Affect-SC-H",1
27,28,2733,"Cs0yfoxGT3","Affect-49","Brightness-Circles-H","Brightness-Circles-L","Affect-EB-H","Affect-EB-L",0
28,29,2869,"Cs0yfoxGT3","Affect-49","Affect-EB-H","Affect-EB-L","Brightness-Circles-H","Brightness-Circles-L",0
29,30,4642,"Cs0yfoxGT3","Affect-49","Affect-EB-H","Affect-EB-L","Pitch-Hum-H","Pitch-Hum-L",0
30,31,4369,"Cs0yfoxGT3","Affect-49","Affect-SC-H","Affect-SC-L","Size-Diamonds-L","Size-Diamonds-H",0
31,32,3299,"Cs0yfoxGT3","Affect-49","Brightness-Circles-H","Brightness-Circles-L","Affect-SC-L","Affect-SC-H",0
32,33,6716,"Cs0yfoxGT3","Affect-49","Affect-EB-H","Affect-EB-L","Amp-Hum-H","Amp-Hum-L",0
33,34,5097,"Cs0yfoxGT3","Affect-49","Color-RB-H","Color-RB-L","Affect-EB-H","Affect-EB-L",1
34,35,3056,"Cs0yfoxGT3","Affect-49","Affect-PD-L","Affect-PD-H","Color-RB-H","Color-RB-L",0
35,36,2639,"Cs0yfoxGT3","Affect-49","Speed-SP3-L","Speed-SP3-H","Affect-HS-L","Affect-HS-H",0
36,37,2641,"Cs0yfoxGT3","Affect-49","Size-Diamonds-L","Size-Diamonds-H","Affect-PD-H","Affect-PD-L",1
37,38,3369,"Cs0yfoxGT3","Affect-49","Shape-BK3-H","Shape-BK3-L","Affect-EB-H","Affect-EB-L",0
38,39,3635,"Cs0yfoxGT3","Affect-49","Affect-HS-L","Affect-HS-H","Color-RB-L","Color-RB-H",0
39,40,5137,"Cs0yfoxGT3","Affect-49","Amp-Hum-H","Amp-Hum-L","Affect-EB-H","Affect-EB-L",0
40,41,9373,"Cs0yfoxGT3","Affect-49","Color-RB-H","Color-RB-L","Affect-SC-L","Affect-SC-H",1
41,42,5530,"Cs0yfoxGT3","Affect-49","Amp-Hum-L","Amp-Hum-H","Affect-PD-H","Affect-PD-L",1
42,43,5025,"Cs0yfoxGT3","Affect-49","Pitch-Hum-H","Pitch-Hum-L","Affect-SC-L","Affect-SC-H",0
43,44,2727,"Cs0yfoxGT3","Affect-49","Affect-HS-L","Affect-HS-H","Shape-BK3-L","Shape-BK3-H",0
44,45,3539,"Cs0yfoxGT3","Affect-49","Affect-SC-H","Affect-SC-L","Amp-Hum-L","Amp-Hum-H",1
45,46,5332,"Cs0yfoxGT3","Affect-49","Noise-Piano-L","Noise-Piano-H","Affect-PD-H","Affect-PD-L",0
46,47,2750,"Cs0yfoxGT3","Affect-49","Affect-SC-H","Affect-SC-L","Color-RB-L","Color-RB-H",1
47,48,4567,"Cs0yfoxGT3","Affect-49","Affect-SC-H","Affect-SC-L","Pitch-Hum-L","Pitch-Hum-H",0
48,49,5036,"Cs0yfoxGT3","Affect-49","Shape-BK3-L","Shape-BK3-H","Affect-PD-H","Affect-PD-L",0
49,50,4565,"Cs0yfoxGT3","Affect-49","Affect-EB-H","Affect-EB-L","Color-RB-H","Color-RB-L",0
50,51,2884,"Cs0yfoxGT3","Affect-49","Affect-PD-L","Affect-PD-H","Shape-BK3-H","Shape-BK3-L",0
51,52,4644,"Cs0yfoxGT3","Affect-49","Noise-Piano-L","Noise-Piano-H","Affect-HS-L","Affect-HS-H",1
52,53,3408,"Cs0yfoxGT3","Affect-49","Affect-SC-H","Affect-SC-L","Speed-SP3-L","Speed-SP3-H",1
53,54,2724,"Cs0yfoxGT3","Affect-49","Affect-HS-L","Affect-HS-H","Size-Diamonds-L","Size-Diamonds-H",0
54,55,4041,"Cs0yfoxGT3","Affect-49","Affect-PD-L","Affect-PD-H","Noise-Piano-H","Noise-Piano-L",0
55,56,2455,"Cs0yfoxGT3","Affect-49","Size-Diamonds-H","Size-Diamonds-L","Affect-EB-H","Affect-EB-L",0
56,57,4909,"Cs0yfoxGT3","Affect-49","Affect-PD-L","Affect-PD-H","Speed-SP3-H","Speed-SP3-L",1
57,58,4847,"Cs0yfoxGT3","Affect-49","Noise-Piano-H","Noise-Piano-L","Affect-SC-L","Affect-SC-H",1
58,59,5260,"Cs0yfoxGT3","Affect-49","Affect-HS-L","Affect-HS-H","Amp-Hum-L","Amp-Hum-H",0
59,60,2814,"Cs0yfoxGT3","Affect-49","Size-Diamonds-H","Size-Diamonds-L","Affect-SC-L","Affect-SC-H",1
60,61,2375,"Cs0yfoxGT3","Affect-49","Size-Diamonds-L","Size-Diamonds-H","Affect-HS-L","Affect-HS-H",0
61,62,4195,"Cs0yfoxGT3","Affect-49","Affect-SC-H","Affect-SC-L","Noise-Piano-L","Noise-Piano-H",1
62,63,2934,"Cs0yfoxGT3","Affect-49","Affect-EB-H","Affect-EB-L","Speed-SP3-H","Speed-SP3-L",0
63,64,4390,"Cs0yfoxGT3","Affect-49","Pitch-Hum-L","Pitch-Hum-H","Affect-HS-L","Affect-HS-H",0
0,1,5542,"dcsjyMxO4J","Affect-5","Noise-Piano-L","Noise-Piano-H","Affect-HS-H","Affect-HS-L",0
1,2,7370,"dcsjyMxO4J","Affect-5","Affect-PD-L","Affect-PD-H","Amp-Piano-L","Amp-Piano-H",0
2,3,5162,"dcsjyMxO4J","Affect-5","Affect-EB-H","Affect-EB-L","Brightness-Triangles-L","Brightness-Triangles-H",1
3,4,7163,"dcsjyMxO4J","Affect-5","Affect-SC-H","Affect-SC-L","Pitch-Piano-H","Pitch-Piano-L",0
4,5,6468,"dcsjyMxO4J","Affect-5","Speed-SP4-L","Speed-SP4-H","Affect-HS-H","Affect-HS-L",1
5,6,7542,"dcsjyMxO4J","Affect-5","Amp-Piano-H","Amp-Piano-L","Affect-EB-L","Affect-EB-H",1
6,7,4404,"dcsjyMxO4J","Affect-5","Size-Triangles-H","Size-Triangles-L","Affect-SC-H","Affect-SC-L",0
7,8,4476,"dcsjyMxO4J","Affect-5","Affect-HS-L","Affect-HS-H","Size-Triangles-H","Size-Triangles-L",1
8,9,4207,"dcsjyMxO4J","Affect-5","Affect-EB-H","Affect-EB-L","Speed-SP4-L","Speed-SP4-H",1
9,10,5830,"dcsjyMxO4J","Affect-5","Amp-Piano-L","Amp-Piano-H","Affect-HS-H","Affect-HS-L",1
10,11,4636,"dcsjyMxO4J","Affect-5","Size-Triangles-L","Size-Triangles-H","Affect-PD-L","Affect-PD-H",0
11,12,3743,"dcsjyMxO4J","Affect-5","Speed-SP4-L","Speed-SP4-H","Affect-PD-L","Affect-PD-H",0
12,13,7236,"dcsjyMxO4J","Affect-5","Pitch-Piano-H","Pitch-Piano-L","Affect-EB-L","Affect-EB-H",0
13,14,7055,"dcsjyMxO4J","Affect-5","Affect-PD-L","Affect-PD-H","Color-RY-L","Color-RY-H",1
14,15,3708,"dcsjyMxO4J","Affect-5","Brightness-Triangles-L","Brightness-Triangles-H","Affect-PD-L","Affect-PD-H",0
15,16,5065,"dcsjyMxO4J","Affect-5","Shape-BK4-L","Shape-BK4-H","Affect-PD-L","Affect-PD-H",1
16,17,5112,"dcsjyMxO4J","Affect-5","Affect-PD-L","Affect-PD-H","Pitch-Piano-L","Pitch-Piano-H",1
17,18,6716,"dcsjyMxO4J","Affect-5","Pitch-Piano-L","Pitch-Piano-H","Affect-PD-L","Affect-PD-H",1
18,19,6530,"dcsjyMxO4J","Affect-5","Affect-HS-L","Affect-HS-H","Noise-Piano-H","Noise-Piano-L",0
19,20,5942,"dcsjyMxO4J","Affect-5","Amp-Piano-H","Amp-Piano-L","Affect-SC-H","Affect-SC-L",0
20,21,4079,"dcsjyMxO4J","Affect-5","Brightness-Triangles-H","Brightness-Triangles-L","Affect-SC-H","Affect-SC-L",0
21,22,4897,"dcsjyMxO4J","Affect-5","Affect-SC-H","Affect-SC-L","Size-Triangles-H","Size-Triangles-L",0
22,23,4979,"dcsjyMxO4J","Affect-5","Color-RY-L","Color-RY-H","Affect-PD-L","Affect-PD-H",1
23,24,3433,"dcsjyMxO4J","Affect-5","Affect-EB-H","Affect-EB-L","Color-RY-L","Color-RY-H",0
24,25,3111,"dcsjyMxO4J","Affect-5","Color-RY-H","Color-RY-L","Affect-EB-L","Affect-EB-H",0
25,26,4541,"dcsjyMxO4J","Affect-5","Affect-HS-L","Affect-HS-H","Color-RY-H","Color-RY-L",0
26,27,5518,"dcsjyMxO4J","Affect-5","Affect-HS-L","Affect-HS-H","Shape-BK4-H","Shape-BK4-L",1
27,28,6176,"dcsjyMxO4J","Affect-5","Noise-Piano-H","Noise-Piano-L","Affect-EB-L","Affect-EB-H",0
28,29,6022,"dcsjyMxO4J","Affect-5","Affect-EB-H","Affect-EB-L","Shape-BK4-L","Shape-BK4-H",1
29,30,2948,"dcsjyMxO4J","Affect-5","Size-Triangles-L","Size-Triangles-H","Affect-HS-H","Affect-HS-L",1
30,31,3998,"dcsjyMxO4J","Affect-5","Speed-SP4-H","Speed-SP4-L","Affect-EB-L","Affect-EB-H",1
31,32,2959,"dcsjyMxO4J","Affect-5","Affect-PD-L","Affect-PD-H","Speed-SP4-L","Speed-SP4-H",0
32,33,6269,"dcsjyMxO4J","Affect-5","Color-RY-H","Color-RY-L","Affect-SC-H","Affect-SC-L",0
33,34,3425,"dcsjyMxO4J","Affect-5","Affect-PD-L","Affect-PD-H","Size-Triangles-L","Size-Triangles-H",0
34,35,3119,"dcsjyMxO4J","Affect-5","Affect-PD-L","Affect-PD-H","Brightness-Triangles-L","Brightness-Triangles-H",0
35,36,4405,"dcsjyMxO4J","Affect-5","Affect-PD-L","Affect-PD-H","Shape-BK4-L","Shape-BK4-H",0
36,37,3484,"dcsjyMxO4J","Affect-5","Affect-HS-L","Affect-HS-H","Speed-SP4-H","Speed-SP4-L",1
37,38,5051,"dcsjyMxO4J","Affect-5","Pitch-Piano-H","Pitch-Piano-L","Affect-SC-H","Affect-SC-L",0
38,39,7093,"dcsjyMxO4J","Affect-5","Affect-SC-H","Affect-SC-L","Brightness-Triangles-H","Brightness-Triangles-L",0
39,40,5753,"dcsjyMxO4J","Affect-5","Noise-Piano-L","Noise-Piano-H","Affect-PD-L","Affect-PD-H",1
40,41,3642,"dcsjyMxO4J","Affect-5","Affect-SC-H","Affect-SC-L","Speed-SP4-H","Speed-SP4-L",0
41,42,4735,"dcsjyMxO4J","Affect-5","Affect-EB-H","Affect-EB-L","Size-Triangles-L","Size-Triangles-H",1
42,43,8345,"dcsjyMxO4J","Affect-5","Affect-HS-L","Affect-HS-H","Pitch-Piano-H","Pitch-Piano-L",0
43,44,4669,"dcsjyMxO4J","Affect-5","Affect-SC-H","Affect-SC-L","Amp-Piano-H","Amp-Piano-L",0
44,45,3812,"dcsjyMxO4J","Affect-5","Affect-SC-H","Affect-SC-L","Shape-BK4-H","Shape-BK4-L",0
45,46,4732,"dcsjyMxO4J","Affect-5","Affect-EB-H","Affect-EB-L","Amp-Piano-L","Amp-Piano-H",1
46,47,5073,"dcsjyMxO4J","Affect-5","Brightness-Triangles-H","Brightness-Triangles-L","Affect-EB-L","Affect-EB-H",1
47,48,6767,"dcsjyMxO4J","Affect-5","Shape-BK4-L","Shape-BK4-H","Affect-HS-H","Affect-HS-L",0
48,49,5627,"dcsjyMxO4J","Affect-5","Amp-Piano-L","Amp-Piano-H","Affect-PD-L","Affect-PD-H",0
49,50,2857,"dcsjyMxO4J","Affect-5","Brightness-Triangles-L","Brightness-Triangles-H","Affect-HS-H","Affect-HS-L",1
50,51,12823,"dcsjyMxO4J","Affect-5","Affect-PD-L","Affect-PD-H","Noise-Piano-L","Noise-Piano-H",1
51,52,4483,"dcsjyMxO4J","Affect-5","Noise-Piano-H","Noise-Piano-L","Affect-SC-H","Affect-SC-L",0
52,53,3595,"dcsjyMxO4J","Affect-5","Affect-SC-H","Affect-SC-L","Color-RY-H","Color-RY-L",0
53,54,5355,"dcsjyMxO4J","Affect-5","Shape-BK4-H","Shape-BK4-L","Affect-EB-L","Affect-EB-H",1
54,55,3229,"dcsjyMxO4J","Affect-5","Affect-HS-L","Affect-HS-H","Brightness-Triangles-H","Brightness-Triangles-L",1
55,56,4058,"dcsjyMxO4J","Affect-5","Shape-BK4-H","Shape-BK4-L","Affect-SC-H","Affect-SC-L",0
56,57,6956,"dcsjyMxO4J","Affect-5","Affect-EB-H","Affect-EB-L","Pitch-Piano-L","Pitch-Piano-H",0
57,58,4280,"dcsjyMxO4J","Affect-5","Affect-SC-H","Affect-SC-L","Noise-Piano-H","Noise-Piano-L",0
58,59,5331,"dcsjyMxO4J","Affect-5","Pitch-Piano-L","Pitch-Piano-H","Affect-HS-H","Affect-HS-L",0
59,60,3030,"dcsjyMxO4J","Affect-5","Color-RY-L","Color-RY-H","Affect-HS-H","Affect-HS-L",0
60,61,2876,"dcsjyMxO4J","Affect-5","Size-Triangles-H","Size-Triangles-L","Affect-EB-L","Affect-EB-H",1
61,62,4521,"dcsjyMxO4J","Affect-5","Affect-EB-H","Affect-EB-L","Noise-Piano-L","Noise-Piano-H",0
62,63,3331,"dcsjyMxO4J","Affect-5","Speed-SP4-H","Speed-SP4-L","Affect-SC-H","Affect-SC-L",0
63,64,3955,"dcsjyMxO4J","Affect-5","Affect-HS-L","Affect-HS-H","Amp-Piano-H","Amp-Piano-L",1
0,1,5197,"dqWmt0Mbbq","Affect-55","Affect-HS-L","Affect-HS-H","Size-Diamonds-H","Size-Diamonds-L",1
1,2,4682,"dqWmt0Mbbq","Affect-55","Affect-PD-H","Affect-PD-L","Shape-BK4-L","Shape-BK4-H",0
2,3,4718,"dqWmt0Mbbq","Affect-55","Shape-BK4-H","Shape-BK4-L","Affect-PD-L","Affect-PD-H",1
3,4,4477,"dqWmt0Mbbq","Affect-55","Affect-EB-H","Affect-EB-L","Speed-SP1-H","Speed-SP1-L",0
4,5,12306,"dqWmt0Mbbq","Affect-55","Amp-Tone-H","Amp-Tone-L","Affect-EB-H","Affect-EB-L",0
5,6,10239,"dqWmt0Mbbq","Affect-55","Size-Diamonds-L","Size-Diamonds-H","Affect-HS-H","Affect-HS-L",1
6,7,5641,"dqWmt0Mbbq","Affect-55","Amp-Tone-L","Amp-Tone-H","Affect-SC-L","Affect-SC-H",0
7,8,5140,"dqWmt0Mbbq","Affect-55","Color-RB-L","Color-RB-H","Affect-SC-L","Affect-SC-H",0
8,9,6472,"dqWmt0Mbbq","Affect-55","Affect-EB-H","Affect-EB-L","Shape-BK4-H","Shape-BK4-L",1
9,10,8517,"dqWmt0Mbbq","Affect-55","Affect-EB-H","Affect-EB-L","Noise-Pulse-H","Noise-Pulse-L",0
10,11,6178,"dqWmt0Mbbq","Affect-55","Amp-Tone-H","Amp-Tone-L","Affect-PD-L","Affect-PD-H",1
11,12,4975,"dqWmt0Mbbq","Affect-55","Affect-PD-H","Affect-PD-L","Brightness-Diamonds-L","Brightness-Diamonds-H",1
12,13,10578,"dqWmt0Mbbq","Affect-55","Noise-Pulse-H","Noise-Pulse-L","Affect-PD-L","Affect-PD-H",1
13,14,10684,"dqWmt0Mbbq","Affect-55","Shape-BK4-L","Shape-BK4-H","Affect-SC-L","Affect-SC-H",0
14,15,6780,"dqWmt0Mbbq","Affect-55","Affect-EB-H","Affect-EB-L","Color-RB-H","Color-RB-L",0
15,16,5765,"dqWmt0Mbbq","Affect-55","Amp-Tone-L","Amp-Tone-H","Affect-HS-H","Affect-HS-L",1
16,17,6627,"dqWmt0Mbbq","Affect-55","Brightness-Diamonds-H","Brightness-Diamonds-L","Affect-PD-L","Affect-PD-H",1
17,18,6652,"dqWmt0Mbbq","Affect-55","Noise-Pulse-L","Noise-Pulse-H","Affect-HS-H","Affect-HS-L",1
18,19,6984,"dqWmt0Mbbq","Affect-55","Affect-EB-H","Affect-EB-L","Amp-Tone-H","Amp-Tone-L",0
19,20,4809,"dqWmt0Mbbq","Affect-55","Speed-SP1-L","Speed-SP1-H","Affect-HS-H","Affect-HS-L",1
20,21,4335,"dqWmt0Mbbq","Affect-55","Affect-SC-L","Affect-SC-H","Brightness-Diamonds-L","Brightness-Diamonds-H",0
21,22,4452,"dqWmt0Mbbq","Affect-55","Size-Diamonds-L","Size-Diamonds-H","Affect-SC-L","Affect-SC-H",0
22,23,5296,"dqWmt0Mbbq","Affect-55","Brightness-Diamonds-H","Brightness-Diamonds-L","Affect-EB-H","Affect-EB-L",0
23,24,5603,"dqWmt0Mbbq","Affect-55","Affect-HS-L","Affect-HS-H","Speed-SP1-H","Speed-SP1-L",1
24,25,3373,"dqWmt0Mbbq","Affect-55","Brightness-Diamonds-L","Brightness-Diamonds-H","Affect-SC-L","Affect-SC-H",0
25,26,3746,"dqWmt0Mbbq","Affect-55","Color-RB-H","Color-RB-L","Affect-EB-H","Affect-EB-L",0
26,27,17889,"dqWmt0Mbbq","Affect-55","Pitch-Pulse-H","Pitch-Pulse-L","Affect-EB-H","Affect-EB-L",1
27,28,8403,"dqWmt0Mbbq","Affect-55","Noise-Pulse-H","Noise-Pulse-L","Affect-EB-H","Affect-EB-L",1
28,29,10770,"dqWmt0Mbbq","Affect-55","Affect-SC-L","Affect-SC-H","Noise-Pulse-L","Noise-Pulse-H",0
29,30,5283,"dqWmt0Mbbq","Affect-55","Affect-PD-H","Affect-PD-L","Amp-Tone-L","Amp-Tone-H",0
30,31,4922,"dqWmt0Mbbq","Affect-55","Brightness-Diamonds-L","Brightness-Diamonds-H","Affect-HS-H","Affect-HS-L",1
31,32,4132,"dqWmt0Mbbq","Affect-55","Affect-PD-H","Affect-PD-L","Speed-SP1-L","Speed-SP1-H",1
32,33,3542,"dqWmt0Mbbq","Affect-55","Speed-SP1-H","Speed-SP1-L","Affect-EB-H","Affect-EB-L",0
33,34,3452,"dqWmt0Mbbq","Affect-55","Color-RB-H","Color-RB-L","Affect-PD-L","Affect-PD-H",1
34,35,8544,"dqWmt0Mbbq","Affect-55","Affect-HS-L","Affect-HS-H","Noise-Pulse-H","Noise-Pulse-L",0
35,36,5116,"dqWmt0Mbbq","Affect-55","Affect-HS-L","Affect-HS-H","Amp-Tone-H","Amp-Tone-L",1
36,37,13292,"dqWmt0Mbbq","Affect-55","Noise-Pulse-L","Noise-Pulse-H","Affect-SC-L","Affect-SC-H",0
37,38,2725,"dqWmt0Mbbq","Affect-55","Affect-SC-L","Affect-SC-H","Color-RB-L","Color-RB-H",0
38,39,7596,"dqWmt0Mbbq","Affect-55","Color-RB-L","Color-RB-H","Affect-HS-H","Affect-HS-L",1
39,40,8340,"dqWmt0Mbbq","Affect-55","Affect-PD-H","Affect-PD-L","Pitch-Pulse-L","Pitch-Pulse-H",1
40,41,7278,"dqWmt0Mbbq","Affect-55","Affect-EB-H","Affect-EB-L","Pitch-Pulse-H","Pitch-Pulse-L",1
41,42,3839,"dqWmt0Mbbq","Affect-55","Affect-SC-L","Affect-SC-H","Shape-BK4-L","Shape-BK4-H",0
42,43,4651,"dqWmt0Mbbq","Affect-55","Speed-SP1-H","Speed-SP1-L","Affect-PD-L","Affect-PD-H",1
43,44,5065,"dqWmt0Mbbq","Affect-55","Pitch-Pulse-H","Pitch-Pulse-L","Affect-PD-L","Affect-PD-H",1
44,45,7019,"dqWmt0Mbbq","Affect-55","Affect-SC-L","Affect-SC-H","Amp-Tone-L","Amp-Tone-H",0
45,46,5434,"dqWmt0Mbbq","Affect-55","Affect-HS-L","Affect-HS-H","Pitch-Pulse-H","Pitch-Pulse-L",1
46,47,3874,"dqWmt0Mbbq","Affect-55","Affect-SC-L","Affect-SC-H","Speed-SP1-L","Speed-SP1-H",0
47,48,5894,"dqWmt0Mbbq","Affect-55","Pitch-Pulse-L","Pitch-Pulse-H","Affect-SC-L","Affect-SC-H",0
48,49,3286,"dqWmt0Mbbq","Affect-55","Shape-BK4-L","Shape-BK4-H","Affect-HS-H","Affect-HS-L",0
49,50,4553,"dqWmt0Mbbq","Affect-55","Shape-BK4-H","Shape-BK4-L","Affect-EB-H","Affect-EB-L",0
50,51,3055,"dqWmt0Mbbq","Affect-55","Affect-PD-H","Affect-PD-L","Size-Diamonds-L","Size-Diamonds-H",1
51,52,9324,"dqWmt0Mbbq","Affect-55","Pitch-Pulse-L","Pitch-Pulse-H","Affect-HS-H","Affect-HS-L",1
52,53,5205,"dqWmt0Mbbq","Affect-55","Affect-HS-L","Affect-HS-H","Shape-BK4-H","Shape-BK4-L",0
53,54,3763,"dqWmt0Mbbq","Affect-55","Speed-SP1-L","Speed-SP1-H","Affect-SC-L","Affect-SC-H",0
54,55,5238,"dqWmt0Mbbq","Affect-55","Affect-EB-H","Affect-EB-L","Brightness-Diamonds-H","Brightness-Diamonds-L",0
55,56,3580,"dqWmt0Mbbq","Affect-55","Size-Diamonds-H","Size-Diamonds-L","Affect-PD-L","Affect-PD-H",1
56,57,3543,"dqWmt0Mbbq","Affect-55","Affect-HS-L","Affect-HS-H","Brightness-Diamonds-H","Brightness-Diamonds-L",1
57,58,5025,"dqWmt0Mbbq","Affect-55","Affect-SC-L","Affect-SC-H","Size-Diamonds-L","Size-Diamonds-H",0
58,59,2917,"dqWmt0Mbbq","Affect-55","Affect-EB-H","Affect-EB-L","Size-Diamonds-H","Size-Diamonds-L",0
59,60,3745,"dqWmt0Mbbq","Affect-55","Affect-PD-H","Affect-PD-L","Color-RB-L","Color-RB-H",1
60,61,3106,"dqWmt0Mbbq","Affect-55","Affect-HS-L","Affect-HS-H","Color-RB-H","Color-RB-L",1
61,62,3260,"dqWmt0Mbbq","Affect-55","Size-Diamonds-H","Size-Diamonds-L","Affect-EB-H","Affect-EB-L",0
62,63,5077,"dqWmt0Mbbq","Affect-55","Affect-PD-H","Affect-PD-L","Noise-Pulse-L","Noise-Pulse-H",0
63,64,4856,"dqWmt0Mbbq","Affect-55","Affect-SC-L","Affect-SC-H","Pitch-Pulse-L","Pitch-Pulse-H",0
0,1,5551,"dW6rELfnS2","Affect-35","Pitch-Pulse-L","Pitch-Pulse-H","Affect-SC-L","Affect-SC-H",0
1,2,6840,"dW6rELfnS2","Affect-35","Affect-PD-L","Affect-PD-H","Noise-Hum-H","Noise-Hum-L",0
2,3,4736,"dW6rELfnS2","Affect-35","Speed-SP3-L","Speed-SP3-H","Affect-SC-L","Affect-SC-H",0
3,4,6459,"dW6rELfnS2","Affect-35","Affect-HS-H","Affect-HS-L","Size-Squares-H","Size-Squares-L",0
4,5,4010,"dW6rELfnS2","Affect-35","Affect-EB-H","Affect-EB-L","Size-Squares-L","Size-Squares-H",1
5,6,4554,"dW6rELfnS2","Affect-35","Color-RB-H","Color-RB-L","Affect-HS-H","Affect-HS-L",1
6,7,5544,"dW6rELfnS2","Affect-35","Amp-Hum-L","Amp-Hum-H","Affect-SC-L","Affect-SC-H",0
7,8,3629,"dW6rELfnS2","Affect-35","Affect-HS-H","Affect-HS-L","Color-RB-H","Color-RB-L",1
8,9,5142,"dW6rELfnS2","Affect-35","Affect-EB-H","Affect-EB-L","Shape-BK3-L","Shape-BK3-H",1
9,10,3731,"dW6rELfnS2","Affect-35","Shape-BK3-L","Shape-BK3-H","Affect-SC-L","Affect-SC-H",0
10,11,5360,"dW6rELfnS2","Affect-35","Speed-SP3-H","Speed-SP3-L","Affect-EB-L","Affect-EB-H",1
11,12,6890,"dW6rELfnS2","Affect-35","Affect-SC-L","Affect-SC-H","Amp-Hum-L","Amp-Hum-H",0
12,13,7547,"dW6rELfnS2","Affect-35","Noise-Hum-H","Noise-Hum-L","Affect-EB-L","Affect-EB-H",0
13,14,2935,"dW6rELfnS2","Affect-35","Affect-HS-H","Affect-HS-L","Shape-BK3-H","Shape-BK3-L",1
14,15,4376,"dW6rELfnS2","Affect-35","Size-Squares-H","Size-Squares-L","Affect-EB-L","Affect-EB-H",1
15,16,4266,"dW6rELfnS2","Affect-35","Amp-Hum-H","Amp-Hum-L","Affect-HS-H","Affect-HS-L",0
16,17,5105,"dW6rELfnS2","Affect-35","Affect-EB-H","Affect-EB-L","Noise-Hum-L","Noise-Hum-H",0
17,18,4191,"dW6rELfnS2","Affect-35","Brightness-Squares-H","Brightness-Squares-L","Affect-HS-H","Affect-HS-L",0
18,19,6259,"dW6rELfnS2","Affect-35","Affect-PD-L","Affect-PD-H","Brightness-Squares-H","Brightness-Squares-L",0
19,20,5771,"dW6rELfnS2","Affect-35","Size-Squares-L","Size-Squares-H","Affect-SC-L","Affect-SC-H",0
20,21,2565,"dW6rELfnS2","Affect-35","Color-RB-L","Color-RB-H","Affect-SC-L","Affect-SC-H",0
21,22,4097,"dW6rELfnS2","Affect-35","Noise-Hum-H","Noise-Hum-L","Affect-HS-H","Affect-HS-L",0
22,23,4139,"dW6rELfnS2","Affect-35","Noise-Hum-L","Noise-Hum-H","Affect-PD-H","Affect-PD-L",0
23,24,4690,"dW6rELfnS2","Affect-35","Amp-Hum-H","Amp-Hum-L","Affect-EB-L","Affect-EB-H",1
24,25,7318,"dW6rELfnS2","Affect-35","Affect-PD-L","Affect-PD-H","Pitch-Pulse-H","Pitch-Pulse-L",1
25,26,4471,"dW6rELfnS2","Affect-35","Affect-EB-H","Affect-EB-L","Amp-Hum-L","Amp-Hum-H",0
26,27,3983,"dW6rELfnS2","Affect-35","Affect-PD-L","Affect-PD-H","Amp-Hum-H","Amp-Hum-L",0
27,28,3600,"dW6rELfnS2","Affect-35","Shape-BK3-H","Shape-BK3-L","Affect-HS-H","Affect-HS-L",1
28,29,3390,"dW6rELfnS2","Affect-35","Affect-HS-H","Affect-HS-L","Pitch-Pulse-H","Pitch-Pulse-L",0
29,30,3943,"dW6rELfnS2","Affect-35","Pitch-Pulse-H","Pitch-Pulse-L","Affect-EB-L","Affect-EB-H",0
30,31,3032,"dW6rELfnS2","Affect-35","Size-Squares-H","Size-Squares-L","Affect-HS-H","Affect-HS-L",1
31,32,2376,"dW6rELfnS2","Affect-35","Affect-EB-H","Affect-EB-L","Color-RB-L","Color-RB-H",0
32,33,2035,"dW6rELfnS2","Affect-35","Color-RB-H","Color-RB-L","Affect-EB-L","Affect-EB-H",0
33,34,2351,"dW6rELfnS2","Affect-35","Affect-HS-H","Affect-HS-L","Speed-SP3-H","Speed-SP3-L",0
34,35,3058,"dW6rELfnS2","Affect-35","Size-Squares-L","Size-Squares-H","Affect-PD-H","Affect-PD-L",1
35,36,2150,"dW6rELfnS2","Affect-35","Affect-SC-L","Affect-SC-H","Color-RB-L","Color-RB-H",0
36,37,3561,"dW6rELfnS2","Affect-35","Pitch-Pulse-L","Pitch-Pulse-H","Affect-PD-H","Affect-PD-L",1
37,38,2321,"dW6rELfnS2","Affect-35","Color-RB-L","Color-RB-H","Affect-PD-H","Affect-PD-L",0
38,39,3040,"dW6rELfnS2","Affect-35","Affect-PD-L","Affect-PD-H","Color-RB-H","Color-RB-L",0
39,40,4518,"dW6rELfnS2","Affect-35","Affect-EB-H","Affect-EB-L","Pitch-Pulse-L","Pitch-Pulse-H",0
40,41,3695,"dW6rELfnS2","Affect-35","Amp-Hum-L","Amp-Hum-H","Affect-PD-H","Affect-PD-L",0
41,42,2625,"dW6rELfnS2","Affect-35","Affect-PD-L","Affect-PD-H","Size-Squares-H","Size-Squares-L",0
42,43,2633,"dW6rELfnS2","Affect-35","Affect-SC-L","Affect-SC-H","Size-Squares-L","Size-Squares-H",0
43,44,1733,"dW6rELfnS2","Affect-35","Shape-BK3-H","Shape-BK3-L","Affect-EB-L","Affect-EB-H",0
44,45,1430,"dW6rELfnS2","Affect-35","Shape-BK3-L","Shape-BK3-H","Affect-PD-H","Affect-PD-L",0
45,46,4356,"dW6rELfnS2","Affect-35","Affect-SC-L","Affect-SC-H","Brightness-Squares-L","Brightness-Squares-H",1
46,47,3021,"dW6rELfnS2","Affect-35","Affect-HS-H","Affect-HS-L","Brightness-Squares-H","Brightness-Squares-L",0
47,48,2244,"dW6rELfnS2","Affect-35","Affect-SC-L","Affect-SC-H","Speed-SP3-L","Speed-SP3-H",0
48,49,3470,"dW6rELfnS2","Affect-35","Affect-SC-L","Affect-SC-H","Noise-Hum-L","Noise-Hum-H",0
49,50,4827,"dW6rELfnS2","Affect-35","Speed-SP3-L","Speed-SP3-H","Affect-PD-H","Affect-PD-L",1
50,51,4100,"dW6rELfnS2","Affect-35","Pitch-Pulse-H","Pitch-Pulse-L","Affect-HS-H","Affect-HS-L",0
51,52,3550,"dW6rELfnS2","Affect-35","Brightness-Squares-H","Brightness-Squares-L","Affect-EB-L","Affect-EB-H",1
52,53,1951,"dW6rELfnS2","Affect-35","Affect-PD-L","Affect-PD-H","Shape-BK3-H","Shape-BK3-L",0
53,54,4285,"dW6rELfnS2","Affect-35","Brightness-Squares-L","Brightness-Squares-H","Affect-SC-L","Affect-SC-H",1
54,55,4375,"dW6rELfnS2","Affect-35","Affect-SC-L","Affect-SC-H","Pitch-Pulse-L","Pitch-Pulse-H",0
55,56,4255,"dW6rELfnS2","Affect-35","Affect-EB-H","Affect-EB-L","Brightness-Squares-L","Brightness-Squares-H",1
56,57,5023,"dW6rELfnS2","Affect-35","Speed-SP3-H","Speed-SP3-L","Affect-HS-H","Affect-HS-L",0
57,58,3479,"dW6rELfnS2","Affect-35","Noise-Hum-L","Noise-Hum-H","Affect-SC-L","Affect-SC-H",0
58,59,3505,"dW6rELfnS2","Affect-35","Brightness-Squares-L","Brightness-Squares-H","Affect-PD-H","Affect-PD-L",1
59,60,5520,"dW6rELfnS2","Affect-35","Affect-HS-H","Affect-HS-L","Noise-Hum-H","Noise-Hum-L",1
60,61,2236,"dW6rELfnS2","Affect-35","Affect-SC-L","Affect-SC-H","Shape-BK3-L","Shape-BK3-H",0
61,62,5267,"dW6rELfnS2","Affect-35","Affect-HS-H","Affect-HS-L","Amp-Hum-H","Amp-Hum-L",0
62,63,4072,"dW6rELfnS2","Affect-35","Affect-EB-H","Affect-EB-L","Speed-SP3-L","Speed-SP3-H",1
63,64,3665,"dW6rELfnS2","Affect-35","Affect-PD-L","Affect-PD-H","Speed-SP3-H","Speed-SP3-L",0
0,1,4399,"E7YtcWwhdY","Affect-15","Affect-SC-H","Affect-SC-L","Speed-SP3-H","Speed-SP3-L",0
1,2,4692,"E7YtcWwhdY","Affect-15","Affect-SC-H","Affect-SC-L","Size-Circles-H","Size-Circles-L",1
2,3,6027,"E7YtcWwhdY","Affect-15","Noise-Piano-L","Noise-Piano-H","Affect-PD-H","Affect-PD-L",0
3,4,3613,"E7YtcWwhdY","Affect-15","Affect-EB-L","Affect-EB-H","Brightness-Diamonds-L","Brightness-Diamonds-H",0
